#K-Path(1/A) Energy-Level(eV)
# NKPTS & NBANDS: 120  64
# Band-Index    1
   0.00000    -12.491092
   0.04067    -12.486356
   0.08133    -12.472166
   0.12200    -12.448582
   0.16266    -12.415701
   0.20333    -12.373665
   0.24399    -12.322661
   0.28466    -12.262928
   0.32533    -12.194763
   0.36599    -12.118526
   0.40666    -12.034650
   0.44732    -11.943655
   0.48799    -11.846154
   0.52866    -11.742871
   0.56932    -11.634655
   0.60999    -11.522493
   0.65065    -11.407524
   0.69132    -11.291051
   0.73198    -11.174540
   0.77265    -11.059611
   0.77265    -11.059611
   0.79026    -11.087933
   0.80787    -11.116023
   0.82548    -11.143745
   0.84309    -11.170977
   0.86069    -11.197603
   0.87830    -11.223521
   0.89591    -11.248633
   0.91352    -11.272854
   0.93113    -11.296103
   0.94874    -11.318307
   0.96635    -11.339401
   0.98396    -11.359325
   1.00157    -11.378024
   1.01917    -11.395448
   1.03678    -11.411553
   1.05439    -11.426300
   1.07200    -11.439651
   1.08961    -11.451576
   1.10722    -11.462044
   1.10722    -11.462044
   1.16004    -11.484478
   1.21287    -11.493082
   1.26570    -11.487559
   1.31852    -11.467809
   1.37135    -11.433925
   1.42418    -11.386195
   1.47700    -11.463725
   1.52983    -11.607284
   1.58266    -11.746371
   1.63548    -11.878134
   1.68831    -12.000341
   1.74114    -12.111262
   1.79396    -12.209554
   1.84679    -12.294185
   1.89962    -12.364368
   1.95244    -12.419511
   2.00527    -12.459185
   2.05809    -12.483101
   2.11092    -12.491092
   2.11092    -12.491092
   2.16073    -12.483989
   2.21053    -12.462730
   2.26034    -12.427462
   2.31014    -12.378441
   2.35995    -12.316049
   2.40975    -12.240808
   2.45956    -12.153424
   2.50936    -12.054821
   2.55917    -11.946206
   2.60897    -11.829151
   2.65878    -11.705690
   2.70858    -11.578457
   2.75839    -11.450825
   2.80820    -11.327057
   2.85800    -11.212389
   2.90781    -11.112942
   2.95761    -11.035306
   3.00742    -10.985670
   3.05722    -10.968565
   3.05722    -10.968565
   3.07755    -10.970165
   3.09789    -10.974940
   3.11822    -10.982822
   3.13855    -10.993697
   3.15889    -11.007411
   3.17922    -11.023778
   3.19955    -11.042583
   3.21988    -11.063590
   3.24022    -11.086546
   3.26055    -11.111192
   3.28088    -11.137264
   3.30122    -11.164498
   3.32155    -11.192637
   3.34188    -11.221431
   3.36222    -11.250640
   3.38255    -11.280037
   3.40288    -11.309408
   3.42321    -11.338554
   3.44355    -11.367287
   3.44355    -11.367287
   3.46388    -11.366339
   3.48421    -11.363497
   3.50455    -11.358770
   3.52488    -11.352172
   3.54521    -11.343725
   3.56554    -11.333456
   3.58588    -11.321397
   3.60621    -11.307588
   3.62654    -11.292078
   3.64688    -11.274919
   3.66721    -11.256175
   3.68754    -11.235916
   3.70787    -11.214222
   3.72821    -11.191180
   3.74854    -11.166890
   3.76887    -11.141462
   3.78921    -11.115015
   3.80954    -11.087683
   3.82987    -11.059611
 
# Band-Index    2
   3.82987    -11.059611
   3.80954    -11.087683
   3.78921    -11.115015
   3.76887    -11.141462
   3.74854    -11.166890
   3.72821    -11.191180
   3.70787    -11.214222
   3.68754    -11.235916
   3.66721    -11.256175
   3.64688    -11.274919
   3.62654    -11.292078
   3.60621    -11.307588
   3.58588    -11.321397
   3.56554    -11.333456
   3.54521    -11.343725
   3.52488    -11.352172
   3.50455    -11.358770
   3.48421    -11.363497
   3.46388    -11.366339
   3.44355    -11.367287
   3.44355    -11.367287
   3.42321    -11.338554
   3.40288    -11.309408
   3.38255    -11.280037
   3.36222    -11.250640
   3.34188    -11.221431
   3.32155    -11.192637
   3.30122    -11.164498
   3.28088    -11.137264
   3.26055    -11.111192
   3.24022    -11.086546
   3.21988    -11.063590
   3.19955    -11.042583
   3.17922    -11.023778
   3.15889    -11.007411
   3.13855    -10.993697
   3.11822    -10.982822
   3.09789    -10.974940
   3.07755    -10.970165
   3.05722    -10.968565
   3.05722    -10.968565
   3.00742    -10.965441
   2.95761    -10.956081
   2.90781    -10.940513
   2.85800    -10.918801
   2.80820    -10.891059
   2.75839    -10.857470
   2.70858    -10.818323
   2.65878    -10.774040
   2.60897    -10.725220
   2.55917    -10.672679
   2.50936    -10.617495
   2.45956    -10.561045
   2.40975    -10.505036
   2.35995    -10.451503
   2.31014    -10.402759
   2.26034    -10.361278
   2.21053    -10.329482
   2.16073    -10.309450
   2.11092    -10.302604
   2.11092    -10.302604
   2.05809    -10.318783
   2.00527    -10.365519
   1.95244    -10.438010
   1.89962    -10.529810
   1.84679    -10.634208
   1.79396    -10.745109
   1.74114    -10.857407
   1.68831    -10.967016
   1.63548    -11.070755
   1.58266    -11.166180
   1.52983    -11.251433
   1.47700    -11.325117
   1.42418    -11.319315
   1.37135    -11.178559
   1.31852    -11.046887
   1.26570    -10.930481
   1.21287    -10.849728
   1.16004    -10.891035
   1.10722    -10.929768
   1.10722    -10.929768
   1.08961    -10.941940
   1.07200    -10.953682
   1.05439    -10.964960
   1.03678    -10.975741
   1.01917    -10.985991
   1.00157    -10.995680
   0.98396    -11.004778
   0.96635    -11.013256
   0.94874    -11.021089
   0.93113    -11.028252
   0.91352    -11.034722
   0.89591    -11.040480
   0.87830    -11.045508
   0.86069    -11.049789
   0.84309    -11.053310
   0.82548    -11.056060
   0.80787    -11.058030
   0.79026    -11.059215
   0.77265    -11.059611
   0.77265    -11.059611
   0.73198    -11.055650
   0.69132    -11.043812
   0.65065    -11.024232
   0.60999    -10.997140
   0.56932    -10.962868
   0.52866    -10.921866
   0.48799    -10.874716
   0.44732    -10.822152
   0.40666    -10.765084
   0.36599    -10.704629
   0.32533    -10.642132
   0.28466    -10.579197
   0.24399    -10.517692
   0.20333    -10.459739
   0.16266    -10.407654
   0.12200    -10.363829
   0.08133    -10.330539
   0.04067    -10.309702
   0.00000    -10.302604
 
# Band-Index    3
   0.00000    -10.302604
   0.04067    -10.309702
   0.08133    -10.330539
   0.12200    -10.363829
   0.16266    -10.407654
   0.20333    -10.459739
   0.24399    -10.517692
   0.28466    -10.579197
   0.32533    -10.642132
   0.36599    -10.704629
   0.40666    -10.765084
   0.44732    -10.822152
   0.48799    -10.874716
   0.52866    -10.921866
   0.56932    -10.962868
   0.60999    -10.997140
   0.65065    -11.024232
   0.69132    -11.043812
   0.73198    -11.055650
   0.77265    -11.059611
   0.77265    -11.059611
   0.79026    -11.059215
   0.80787    -11.058030
   0.82548    -11.056060
   0.84309    -11.053310
   0.86069    -11.049789
   0.87830    -11.045508
   0.89591    -11.040480
   0.91352    -11.034722
   0.93113    -11.028252
   0.94874    -11.021089
   0.96635    -11.013256
   0.98396    -11.004778
   1.00157    -10.995680
   1.01917    -10.985991
   1.03678    -10.975741
   1.05439    -10.964960
   1.07200    -10.953682
   1.08961    -10.941940
   1.10722    -10.929768
   1.10722    -10.929768
   1.16004    -10.891035
   1.21287    -10.849728
   1.26570    -10.806795
   1.31852    -10.763103
   1.37135    -10.719387
   1.42418    -10.676211
   1.47700    -10.633967
   1.52983    -10.592893
   1.58266    -10.553128
   1.63548    -10.514776
   1.68831    -10.477985
   1.74114    -10.443017
   1.79396    -10.410298
   1.84679    -10.380437
   1.89962    -10.354209
   1.95244    -10.332495
   2.00527    -10.316185
   2.05809    -10.306046
   2.11092    -10.302604
   2.11092    -10.302604
   2.16073    -10.309450
   2.21053    -10.329482
   2.26034    -10.361278
   2.31014    -10.402759
   2.35995    -10.451503
   2.40975    -10.505036
   2.45956    -10.561045
   2.50936    -10.617495
   2.55917    -10.672679
   2.60897    -10.725220
   2.65878    -10.774040
   2.70858    -10.818323
   2.75839    -10.857470
   2.80820    -10.891059
   2.85800    -10.918801
   2.90781    -10.940513
   2.95761    -10.956081
   3.00742    -10.965441
   3.05722    -10.968565
   3.05722    -10.968565
   3.07755    -10.967620
   3.09789    -10.964788
   3.11822    -10.960078
   3.13855    -10.953505
   3.15889    -10.945088
   3.17922    -10.934855
   3.19955    -10.922840
   3.21988    -10.909081
   3.24022    -10.893627
   3.26055    -10.876531
   3.28088    -10.857855
   3.30122    -10.837670
   3.32155    -10.816055
   3.34188    -10.793097
   3.36222    -10.768897
   3.38255    -10.743562
   3.40288    -10.717213
   3.42321    -10.689981
   3.44355    -10.662012
   3.44355    -10.662012
   3.46388    -10.663607
   3.48421    -10.668369
   3.50455    -10.676228
   3.52488    -10.687071
   3.54521    -10.700746
   3.56554    -10.717066
   3.58588    -10.735817
   3.60621    -10.756764
   3.62654    -10.779655
   3.64688    -10.804231
   3.66721    -10.830228
   3.68754    -10.857385
   3.70787    -10.885445
   3.72821    -10.914157
   3.74854    -10.943285
   3.76887    -10.972600
   3.78921    -11.001890
   3.80954    -11.030956
   3.82987    -11.059611
 
# Band-Index    4
   3.82987    -11.059611
   3.80954    -11.030956
   3.78921    -11.001890
   3.76887    -10.972600
   3.74854    -10.943285
   3.72821    -10.914157
   3.70787    -10.885445
   3.68754    -10.857385
   3.66721    -10.830228
   3.64688    -10.804231
   3.62654    -10.779655
   3.60621    -10.756764
   3.58588    -10.735817
   3.56554    -10.717066
   3.54521    -10.700746
   3.52488    -10.687071
   3.50455    -10.676228
   3.48421    -10.668369
   3.46388    -10.663607
   3.44355    -10.662012
   3.44355    -10.662012
   3.42321    -10.689981
   3.40288    -10.717213
   3.38255    -10.743562
   3.36222    -10.768897
   3.34188    -10.793097
   3.32155    -10.816055
   3.30122    -10.837670
   3.28088    -10.857855
   3.26055    -10.876531
   3.24022    -10.893627
   3.21988    -10.909081
   3.19955    -10.922840
   3.17922    -10.934855
   3.15889    -10.945088
   3.13855    -10.953505
   3.11822    -10.960078
   3.09789    -10.964788
   3.07755    -10.967620
   3.05722    -10.968565
   3.05722    -10.968565
   3.00742    -10.965441
   2.95761    -10.956081
   2.90781    -10.940513
   2.85800    -10.918801
   2.80820    -10.891059
   2.75839    -10.857470
   2.70858    -10.818323
   2.65878    -10.774040
   2.60897    -10.725220
   2.55917    -10.672679
   2.50936    -10.617495
   2.45956    -10.561045
   2.40975    -10.505036
   2.35995    -10.451503
   2.31014    -10.402759
   2.26034    -10.361278
   2.21053    -10.329482
   2.16073    -10.309450
   2.11092    -10.302604
   2.11092    -10.302604
   2.05809    -10.306046
   2.00527    -10.316185
   1.95244    -10.332495
   1.89962    -10.354209
   1.84679    -10.380437
   1.79396    -10.410298
   1.74114    -10.443017
   1.68831    -10.477985
   1.63548    -10.514776
   1.58266    -10.553128
   1.52983    -10.592893
   1.47700    -10.633967
   1.42418    -10.676211
   1.37135    -10.719387
   1.31852    -10.763103
   1.26570    -10.806795
   1.21287    -10.835756
   1.16004    -10.768400
   1.10722    -10.732129
   1.10722    -10.732129
   1.08961    -10.727168
   1.07200    -10.725713
   1.05439    -10.727666
   1.03678    -10.732896
   1.01917    -10.741237
   1.00157    -10.752496
   0.98396    -10.766462
   0.96635    -10.782904
   0.94874    -10.801584
   0.93113    -10.822256
   0.91352    -10.844676
   0.89591    -10.868601
   0.87830    -10.893795
   0.86069    -10.920030
   0.84309    -10.947088
   0.82548    -10.974764
   0.80787    -11.002862
   0.79026    -11.031201
   0.77265    -11.059611
   0.77265    -11.059611
   0.73198    -10.948008
   0.69132    -10.841546
   0.65065    -10.742026
   0.60999    -10.651121
   0.56932    -10.570238
   0.52866    -10.500392
   0.48799    -10.442087
   0.44732    -10.395267
   0.40666    -10.359332
   0.36599    -10.333216
   0.32533    -10.315523
   0.28466    -10.304677
   0.24399    -10.299060
   0.20333    -10.297133
   0.16266    -10.297517
   0.12200    -10.299047
   0.08133    -10.300802
   0.04067    -10.302121
   0.00000    -10.302604
 
# Band-Index    5
   0.00000     -6.734573
   0.04067     -6.732433
   0.08133     -6.726054
   0.12200     -6.715580
   0.16266     -6.701217
   0.20333     -6.683192
   0.24399     -6.661682
   0.28466     -6.636713
   0.32533     -6.608039
   0.36599     -6.575022
   0.40666     -6.536544
   0.44732     -6.490993
   0.48799     -6.436357
   0.52866     -6.370427
   0.56932     -6.291046
   0.60999     -6.196338
   0.65065     -6.084877
   0.69132     -5.955742
   0.73198     -5.808496
   0.77265     -5.643102
   0.77265     -5.643102
   0.79026     -5.688311
   0.80787     -5.736442
   0.82548     -5.786985
   0.84309     -5.839350
   0.86069     -5.892896
   0.87830     -5.946948
   0.89591     -6.000821
   0.91352     -6.053829
   0.93113     -6.105301
   0.94874     -6.154590
   0.96635     -6.201077
   0.98396     -6.244178
   1.00157     -6.283348
   1.01917     -6.318085
   1.03678     -6.347932
   1.05439     -6.372480
   1.07200     -6.391372
   1.08961     -6.404306
   1.10722     -6.411036
   1.10722     -6.411036
   1.16004     -6.392414
   1.21287     -6.314545
   1.26570     -6.345828
   1.31852     -6.378516
   1.37135     -6.395336
   1.42418     -6.399210
   1.47700     -6.394595
   1.52983     -6.387305
   1.58266     -6.383902
   1.63548     -6.390528
   1.68831     -6.411345
   1.74114     -6.447250
   1.79396     -6.495631
   1.84679     -6.551280
   1.89962     -6.607839
   1.95244     -6.659071
   2.00527     -6.699663
   2.05809     -6.725643
   2.11092     -6.734573
   2.11092     -6.734573
   2.16073     -6.721887
   2.21053     -6.684922
   2.26034     -6.626940
   2.31014     -6.553205
   2.35995     -6.470774
   2.40975     -6.388155
   2.45956     -6.314608
   2.50936     -6.258806
   2.55917     -6.226910
   2.60897     -6.220877
   2.65878     -6.238133
   2.70858     -6.272882
   2.75839     -6.318078
   2.80820     -6.366980
   2.85800     -6.413927
   2.90781     -6.454542
   2.95761     -6.485649
   3.00742     -6.505122
   3.05722     -6.511745
   3.05722     -6.511745
   3.07755     -6.511188
   3.09789     -6.509525
   3.11822     -6.506779
   3.13855     -6.502988
   3.15889     -6.498205
   3.17922     -6.492499
   3.19955     -6.485958
   3.21988     -6.478684
   3.24022     -6.470801
   3.26055     -6.462448
   3.28088     -6.453787
   3.30122     -6.444995
   3.32155     -6.436271
   3.34188     -6.427833
   3.36222     -6.419910
   3.38255     -6.412750
   3.40288     -6.406603
   3.42321     -6.401723
   3.44355     -6.398352
   3.44355     -6.398352
   3.46388     -6.395163
   3.48421     -6.385639
   3.50455     -6.369904
   3.52488     -6.348163
   3.54521     -6.320701
   3.56554     -6.287876
   3.58588     -6.250120
   3.60621     -6.207929
   3.62654     -6.161862
   3.64688     -6.112540
   3.66721     -6.060634
   3.68754     -6.006864
   3.70787     -5.951990
   3.72821     -5.896798
   3.74854     -5.842088
   3.76887     -5.788647
   3.78921     -5.737228
   3.80954     -5.688517
   3.82987     -5.643102
 
# Band-Index    6
   3.82987     -5.643102
   3.80954     -5.688517
   3.78921     -5.737228
   3.76887     -5.788647
   3.74854     -5.842088
   3.72821     -5.896798
   3.70787     -5.951990
   3.68754     -6.006864
   3.66721     -6.060634
   3.64688     -6.112540
   3.62654     -6.161862
   3.60621     -6.207929
   3.58588     -6.250120
   3.56554     -6.287876
   3.54521     -6.320701
   3.52488     -6.348163
   3.50455     -6.369904
   3.48421     -6.385639
   3.46388     -6.395163
   3.44355     -6.398352
   3.44355     -6.398352
   3.42321     -6.401723
   3.40288     -6.406603
   3.38255     -6.412750
   3.36222     -6.419910
   3.34188     -6.427833
   3.32155     -6.436271
   3.30122     -6.444995
   3.28088     -6.453787
   3.26055     -6.462448
   3.24022     -6.470801
   3.21988     -6.478684
   3.19955     -6.485958
   3.17922     -6.492499
   3.15889     -6.498205
   3.13855     -6.502988
   3.11822     -6.506779
   3.09789     -6.509525
   3.07755     -6.511188
   3.05722     -6.511745
   3.05722     -6.511745
   3.00742     -6.505122
   2.95761     -6.485649
   2.90781     -6.454542
   2.85800     -6.413927
   2.80820     -6.366980
   2.75839     -6.318078
   2.70858     -6.272882
   2.65878     -6.238133
   2.60897     -6.220877
   2.55917     -6.226910
   2.50936     -6.258806
   2.45956     -6.314608
   2.40975     -6.388155
   2.35995     -6.470774
   2.31014     -6.553205
   2.26034     -6.626940
   2.21053     -6.684922
   2.16073     -6.721887
   2.11092     -6.734573
   2.11092     -6.734573
   2.05809     -6.725643
   2.00527     -6.699663
   1.95244     -6.659071
   1.89962     -6.607839
   1.84679     -6.551280
   1.79396     -6.495631
   1.74114     -6.447250
   1.68831     -6.411345
   1.63548     -6.390528
   1.58266     -6.383902
   1.52983     -6.387305
   1.47700     -6.394595
   1.42418     -6.399210
   1.37135     -6.395336
   1.31852     -6.378516
   1.26570     -6.345828
   1.21287     -6.295871
   1.16004     -6.228707
   1.10722     -6.145858
   1.10722     -6.145858
   1.08961     -6.115245
   1.07200     -6.083380
   1.05439     -6.050446
   1.03678     -6.016654
   1.01917     -5.982246
   1.00157     -5.947492
   0.98396     -5.912700
   0.96635     -5.878209
   0.94874     -5.844397
   0.93113     -5.811680
   0.91352     -5.780502
   0.89591     -5.751341
   0.87830     -5.724689
   0.86069     -5.701044
   0.84309     -5.680893
   0.82548     -5.664682
   0.80787     -5.652799
   0.79026     -5.645543
   0.77265     -5.643102
   0.77265     -5.643102
   0.73198     -5.646517
   0.69132     -5.656952
   0.65065     -5.674967
   0.60999     -5.701419
   0.56932     -5.737353
   0.52866     -5.783809
   0.48799     -5.841585
   0.44732     -5.910952
   0.40666     -5.991386
   0.36599     -6.081392
   0.32533     -6.178468
   0.28466     -6.279219
   0.24399     -6.379587
   0.20333     -6.475128
   0.16266     -6.561302
   0.12200     -6.633765
   0.08133     -6.688661
   0.04067     -6.722925
   0.00000     -6.734573
 
# Band-Index    7
   0.00000     -6.734573
   0.04067     -6.722925
   0.08133     -6.688661
   0.12200     -6.633765
   0.16266     -6.561302
   0.20333     -6.475128
   0.24399     -6.379587
   0.28466     -6.279219
   0.32533     -6.178468
   0.36599     -6.081392
   0.40666     -5.991386
   0.44732     -5.910952
   0.48799     -5.841585
   0.52866     -5.783809
   0.56932     -5.737353
   0.60999     -5.701419
   0.65065     -5.674967
   0.69132     -5.656952
   0.73198     -5.646517
   0.77265     -5.643102
   0.77265     -5.643102
   0.79026     -5.645543
   0.80787     -5.652799
   0.82548     -5.664682
   0.84309     -5.680893
   0.86069     -5.701044
   0.87830     -5.724689
   0.89591     -5.751341
   0.91352     -5.780502
   0.93113     -5.811680
   0.94874     -5.844397
   0.96635     -5.878209
   0.98396     -5.912700
   1.00157     -5.947492
   1.01917     -5.982246
   1.03678     -6.016654
   1.05439     -6.050446
   1.07200     -6.083380
   1.08961     -6.115245
   1.10722     -6.145858
   1.10722     -6.145858
   1.16004     -6.228707
   1.21287     -6.295871
   1.26570     -6.179283
   1.31852     -5.991111
   1.37135     -5.755741
   1.42418     -5.479042
   1.47700     -5.395704
   1.52983     -5.437413
   1.58266     -5.503915
   1.63548     -5.599668
   1.68831     -5.725200
   1.74114     -5.876000
   1.79396     -6.043157
   1.84679     -6.215137
   1.89962     -6.379500
   1.95244     -6.523990
   2.00527     -6.637241
   2.05809     -6.709645
   2.11092     -6.734573
   2.11092     -6.734573
   2.16073     -6.721887
   2.21053     -6.684922
   2.26034     -6.626940
   2.31014     -6.553205
   2.35995     -6.470774
   2.40975     -6.388155
   2.45956     -6.314608
   2.50936     -6.258806
   2.55917     -6.226910
   2.60897     -6.220877
   2.65878     -6.238133
   2.70858     -6.272882
   2.75839     -6.318078
   2.80820     -6.366980
   2.85800     -6.413927
   2.90781     -6.454542
   2.95761     -6.485649
   3.00742     -6.505122
   3.05722     -6.511745
   3.05722     -6.511745
   3.07755     -6.507878
   3.09789     -6.496310
   3.11822     -6.477129
   3.13855     -6.450482
   3.15889     -6.416570
   3.17922     -6.375640
   3.19955     -6.327987
   3.21988     -6.273940
   3.24022     -6.213863
   3.26055     -6.148147
   3.28088     -6.077208
   3.30122     -6.001485
   3.32155     -5.921437
   3.34188     -5.837542
   3.36222     -5.750297
   3.38255     -5.660224
   3.40288     -5.567864
   3.42321     -5.473785
   3.44355     -5.378583
   3.44355     -5.378583
   3.46388     -5.378746
   3.48421     -5.379259
   3.50455     -5.380181
   3.52488     -5.381616
   3.54521     -5.383711
   3.56554     -5.386655
   3.58588     -5.390679
   3.60621     -5.396060
   3.62654     -5.403115
   3.64688     -5.412194
   3.66721     -5.423680
   3.68754     -5.437969
   3.70787     -5.455458
   3.72821     -5.476517
   3.74854     -5.501467
   3.76887     -5.530545
   3.78921     -5.563876
   3.80954     -5.601449
   3.82987     -5.643102
 
# Band-Index    8
   3.82987     -5.643102
   3.80954     -5.601449
   3.78921     -5.563876
   3.76887     -5.530545
   3.74854     -5.501467
   3.72821     -5.476517
   3.70787     -5.455458
   3.68754     -5.437969
   3.66721     -5.423680
   3.64688     -5.412194
   3.62654     -5.403115
   3.60621     -5.396060
   3.58588     -5.390679
   3.56554     -5.386655
   3.54521     -5.383711
   3.52488     -5.381616
   3.50455     -5.380181
   3.48421     -5.379259
   3.46388     -5.378746
   3.44355     -5.378583
   3.44355     -5.378583
   3.42321     -5.473785
   3.40288     -5.567864
   3.38255     -5.660224
   3.36222     -5.750297
   3.34188     -5.837542
   3.32155     -5.921437
   3.30122     -6.001485
   3.28088     -6.077208
   3.26055     -6.148147
   3.24022     -6.213863
   3.21988     -6.273940
   3.19955     -6.327987
   3.17922     -6.375640
   3.15889     -6.416570
   3.13855     -6.450482
   3.11822     -6.477129
   3.09789     -6.496310
   3.07755     -6.507878
   3.05722     -6.511745
   3.05722     -6.511745
   3.00742     -6.478748
   2.95761     -6.381490
   2.90781     -6.224660
   2.85800     -6.014716
   2.80820     -5.758632
   2.75839     -5.463042
   2.70858     -5.133830
   2.65878     -4.776071
   2.60897     -4.394126
   2.55917     -3.991827
   2.50936     -3.572646
   2.45956     -3.243799
   2.40975     -3.180021
   2.35995     -3.082467
   2.31014     -2.965819
   2.26034     -2.846577
   2.21053     -2.742463
   2.16073     -2.670842
   2.11092     -2.645220
   2.11092     -2.645220
   2.05809     -2.678840
   2.00527     -2.772034
   1.95244     -2.905887
   1.89962     -3.057930
   1.84679     -3.207426
   1.79396     -3.337183
   1.74114     -3.433890
   1.68831     -3.644934
   1.63548     -4.058486
   1.58266     -4.452227
   1.52983     -4.822785
   1.47700     -5.166455
   1.42418     -5.372502
   1.37135     -5.361530
   1.31852     -5.357557
   1.26570     -5.356763
   1.21287     -5.356773
   1.16004     -5.356610
   1.10722     -5.356726
   1.10722     -5.356726
   1.08961     -5.357123
   1.07200     -5.357877
   1.05439     -5.359128
   1.03678     -5.361043
   1.01917     -5.363816
   1.00157     -5.367666
   0.98396     -5.372842
   0.96635     -5.379619
   0.94874     -5.388296
   0.93113     -5.399191
   0.91352     -5.412633
   0.89591     -5.428950
   0.87830     -5.448457
   0.86069     -5.471432
   0.84309     -5.498101
   0.82548     -5.528609
   0.80787     -5.563007
   0.79026     -5.601233
   0.77265     -5.643102
   0.77265     -5.643102
   0.73198     -5.459831
   0.69132     -5.259164
   0.65065     -5.041717
   0.60999     -4.808187
   0.56932     -4.559317
   0.52866     -4.295884
   0.48799     -4.018685
   0.44732     -3.842730
   0.40666     -3.792027
   0.36599     -3.712825
   0.32533     -3.607231
   0.28466     -3.478870
   0.24399     -3.333052
   0.20333     -3.176998
   0.16266     -3.020147
   0.12200     -2.874420
   0.08133     -2.753961
   0.04067     -2.673582
   0.00000     -2.645220
 
# Band-Index    9
   0.00000     -2.645220
   0.04067     -2.649400
   0.08133     -2.662371
   0.12200     -2.684702
   0.16266     -2.716245
   0.20333     -2.756075
   0.24399     -2.802680
   0.28466     -2.854225
   0.32533     -2.908761
   0.36599     -3.113088
   0.40666     -3.426369
   0.44732     -3.728551
   0.48799     -3.864175
   0.52866     -3.856729
   0.56932     -3.821604
   0.60999     -3.760565
   0.65065     -3.675674
   0.69132     -3.569081
   0.73198     -3.442901
   0.77265     -3.299145
   0.77265     -3.299145
   0.79026     -3.333168
   0.80787     -3.359440
   0.82548     -3.378258
   0.84309     -3.389991
   0.86069     -3.395055
   0.87830     -3.393892
   0.89591     -3.386952
   0.91352     -3.374676
   0.93113     -3.357491
   0.94874     -3.335797
   0.96635     -3.309963
   0.98396     -3.280331
   1.00157     -3.247215
   1.01917     -3.210899
   1.03678     -3.171638
   1.05439     -3.129664
   1.07200     -3.085189
   1.08961     -3.038408
   1.10722     -2.989495
   1.10722     -2.989495
   1.16004     -2.831503
   1.21287     -2.659413
   1.26570     -2.734272
   1.31852     -2.864626
   1.37135     -3.005468
   1.42418     -3.145463
   1.47700     -3.274508
   1.52983     -3.382490
   1.58266     -3.459422
   1.63548     -3.496616
   1.68831     -3.488443
   1.74114     -3.433890
   1.79396     -3.337183
   1.84679     -3.207426
   1.89962     -3.057930
   1.95244     -2.905887
   2.00527     -2.772034
   2.05809     -2.678840
   2.11092     -2.645220
   2.11092     -2.645220
   2.16073     -2.670842
   2.21053     -2.742463
   2.26034     -2.846577
   2.31014     -2.965819
   2.35995     -3.082467
   2.40975     -3.180021
   2.45956     -3.243799
   2.50936     -3.261720
   2.55917     -3.225686
   2.60897     -3.132880
   2.65878     -2.985882
   2.70858     -2.791334
   2.75839     -2.558133
   2.80820     -2.296367
   2.85800     -2.017605
   2.90781     -1.737019
   2.95761     -1.478319
   3.00742     -1.282024
   3.05722     -1.205556
   3.05722     -1.205556
   3.07755     -1.221211
   3.09789     -1.266561
   3.11822     -1.337432
   3.13855     -1.428516
   3.15889     -1.534633
   3.17922     -1.651346
   3.19955     -1.775111
   3.21988     -1.903166
   3.24022     -2.033364
   3.26055     -2.164019
   3.28088     -2.293769
   3.30122     -2.421492
   3.32155     -2.546231
   3.34188     -2.667150
   3.36222     -2.783500
   3.38255     -2.894594
   3.40288     -2.999794
   3.42321     -3.098509
   3.44355     -3.190191
   3.44355     -3.190191
   3.46388     -3.192822
   3.48421     -3.200544
   3.50455     -3.212859
   3.52488     -3.229015
   3.54521     -3.248097
   3.56554     -3.269102
   3.58588     -3.291008
   3.60621     -3.312811
   3.62654     -3.333546
   3.64688     -3.352292
   3.66721     -3.368170
   3.68754     -3.380336
   3.70787     -3.387980
   3.72821     -3.390325
   3.74854     -3.386636
   3.76887     -3.376228
   3.78921     -3.358494
   3.80954     -3.332926
   3.82987     -3.299145
 
# Band-Index   10
   3.82987     -3.299145
   3.80954     -3.332926
   3.78921     -3.358494
   3.76887     -3.376228
   3.74854     -3.386636
   3.72821     -3.390325
   3.70787     -3.387980
   3.68754     -3.380336
   3.66721     -3.368170
   3.64688     -3.352292
   3.62654     -3.333546
   3.60621     -3.312811
   3.58588     -3.291008
   3.56554     -3.269102
   3.54521     -3.248097
   3.52488     -3.229015
   3.50455     -3.212859
   3.48421     -3.200544
   3.46388     -3.192822
   3.44355     -3.190191
   3.44355     -3.190191
   3.42321     -3.098509
   3.40288     -2.999794
   3.38255     -2.894594
   3.36222     -2.783500
   3.34188     -2.667150
   3.32155     -2.546231
   3.30122     -2.421492
   3.28088     -2.293769
   3.26055     -2.164019
   3.24022     -2.033364
   3.21988     -1.903166
   3.19955     -1.775111
   3.17922     -1.651346
   3.15889     -1.534633
   3.13855     -1.428516
   3.11822     -1.337432
   3.09789     -1.266561
   3.07755     -1.221211
   3.05722     -1.205556
   3.05722     -1.205556
   3.00742     -1.282024
   2.95761     -1.478319
   2.90781     -1.737019
   2.85800     -2.017605
   2.80820     -2.296367
   2.75839     -2.558133
   2.70858     -2.791334
   2.65878     -2.985882
   2.60897     -3.132880
   2.55917     -3.225686
   2.50936     -3.261720
   2.45956     -3.243799
   2.40975     -3.180021
   2.35995     -3.082467
   2.31014     -2.965819
   2.26034     -2.846577
   2.21053     -2.742463
   2.16073     -2.670842
   2.11092     -2.645220
   2.11092     -2.645220
   2.05809     -2.655158
   2.00527     -2.682744
   1.95244     -2.721809
   1.89962     -2.763315
   1.84679     -2.796499
   1.79396     -2.809755
   1.74114     -3.214770
   1.68831     -3.488443
   1.63548     -3.496616
   1.58266     -3.459422
   1.52983     -3.382490
   1.47700     -3.274508
   1.42418     -3.145463
   1.37135     -3.005468
   1.31852     -2.864626
   1.26570     -2.734272
   1.21287     -2.629884
   1.16004     -2.574177
   1.10722     -2.591117
   1.10722     -2.591117
   1.08961     -2.614374
   1.07200     -2.645550
   1.05439     -2.683580
   1.03678     -2.727216
   1.01917     -2.775153
   1.00157     -2.826099
   0.98396     -2.878826
   0.96635     -2.932186
   0.94874     -2.985100
   0.93113     -3.036568
   0.91352     -3.085645
   0.89591     -3.131442
   0.87830     -3.173126
   0.86069     -3.209919
   0.84309     -3.241113
   0.82548     -3.266084
   0.80787     -3.284316
   0.79026     -3.295417
   0.77265     -3.299145
   0.77265     -3.299145
   0.73198     -3.295284
   0.69132     -3.283756
   0.65065     -3.264733
   0.60999     -3.238504
   0.56932     -3.205491
   0.52866     -3.166258
   0.48799     -3.121528
   0.44732     -3.072204
   0.40666     -3.019388
   0.36599     -2.964395
   0.32533     -2.908761
   0.28466     -2.854225
   0.24399     -2.802680
   0.20333     -2.756075
   0.16266     -2.716245
   0.12200     -2.684702
   0.08133     -2.662371
   0.04067     -2.649400
   0.00000     -2.645220
 
# Band-Index   11
   0.00000     -2.645220
   0.04067     -2.647710
   0.08133     -2.653846
   0.12200     -2.660550
   0.16266     -2.664045
   0.20333     -2.660310
   0.24399     -2.645320
   0.28466     -2.615261
   0.32533     -2.789767
   0.36599     -2.964395
   0.40666     -3.019388
   0.44732     -3.072204
   0.48799     -3.121528
   0.52866     -3.166258
   0.56932     -3.205491
   0.60999     -3.238504
   0.65065     -3.264733
   0.69132     -3.283756
   0.73198     -3.295284
   0.77265     -3.299145
   0.77265     -3.299145
   0.79026     -3.295417
   0.80787     -3.284316
   0.82548     -3.266084
   0.84309     -3.241113
   0.86069     -3.209919
   0.87830     -3.173126
   0.89591     -3.131442
   0.91352     -3.085645
   0.93113     -3.036568
   0.94874     -2.985100
   0.96635     -2.932186
   0.98396     -2.878826
   1.00157     -2.826099
   1.01917     -2.775153
   1.03678     -2.727216
   1.05439     -2.683580
   1.07200     -2.645550
   1.08961     -2.614374
   1.10722     -2.591117
   1.10722     -2.591117
   1.16004     -2.574177
   1.21287     -2.629884
   1.26570     -2.476263
   1.31852     -2.284653
   1.37135     -2.086946
   1.42418     -1.912938
   1.47700     -2.021042
   1.52983     -2.249207
   1.58266     -2.459454
   1.63548     -2.621252
   1.68831     -2.731095
   1.74114     -2.791444
   1.79396     -2.771181
   1.84679     -2.556586
   1.89962     -2.590130
   1.95244     -2.614987
   2.00527     -2.632032
   2.05809     -2.641964
   2.11092     -2.645220
   2.11092     -2.645220
   2.16073     -2.638005
   2.21053     -2.616416
   2.26034     -2.580666
   2.31014     -2.531118
   2.35995     -2.468298
   2.40975     -2.696856
   2.45956     -3.139892
   2.50936     -3.261720
   2.55917     -3.225686
   2.60897     -3.132880
   2.65878     -2.985882
   2.70858     -2.791334
   2.75839     -2.558133
   2.80820     -2.296367
   2.85800     -2.017605
   2.90781     -1.737019
   2.95761     -1.478319
   3.00742     -1.282024
   3.05722     -1.205556
   3.05722     -1.205556
   3.07755     -1.209335
   3.09789     -1.220506
   3.11822     -1.238596
   3.13855     -1.262884
   3.15889     -1.292494
   3.17922     -1.326473
   3.19955     -1.363861
   3.21988     -1.403743
   3.24022     -1.445272
   3.26055     -1.487688
   3.28088     -1.530307
   3.30122     -1.572527
   3.32155     -1.613809
   3.34188     -1.653673
   3.36222     -1.691686
   3.38255     -1.743870
   3.40288     -1.809465
   3.42321     -1.877796
   3.44355     -1.948594
   3.44355     -1.948594
   3.46388     -1.944533
   3.48421     -1.932531
   3.50455     -1.967302
   3.52488     -2.053590
   3.54521     -2.147198
   3.56554     -2.245351
   3.58588     -2.346054
   3.60621     -2.447691
   3.62654     -2.548848
   3.64688     -2.648242
   3.66721     -2.744683
   3.68754     -2.837069
   3.70787     -2.924379
   3.72821     -3.005689
   3.74854     -3.080191
   3.76887     -3.147212
   3.78921     -3.206237
   3.80954     -3.256930
   3.82987     -3.299145
 
# Band-Index   12
   3.82987     -3.299145
   3.80954     -3.256930
   3.78921     -3.206237
   3.76887     -3.147212
   3.74854     -3.080191
   3.72821     -3.005689
   3.70787     -2.924379
   3.68754     -2.837069
   3.66721     -2.744683
   3.64688     -2.648242
   3.62654     -2.548848
   3.60621     -2.447691
   3.58588     -2.346054
   3.56554     -2.245351
   3.54521     -2.147198
   3.52488     -2.053590
   3.50455     -1.967302
   3.48421     -1.932531
   3.46388     -1.944533
   3.44355     -1.948594
   3.44355     -1.948594
   3.42321     -1.877796
   3.40288     -1.809465
   3.38255     -1.743870
   3.36222     -1.691686
   3.34188     -1.653673
   3.32155     -1.613809
   3.30122     -1.572527
   3.28088     -1.530307
   3.26055     -1.487688
   3.24022     -1.445272
   3.21988     -1.403743
   3.19955     -1.363861
   3.17922     -1.326473
   3.15889     -1.292494
   3.13855     -1.262884
   3.11822     -1.238596
   3.09789     -1.220506
   3.07755     -1.209335
   3.05722     -1.205556
   3.05722     -1.205556
   3.00742     -1.219990
   2.95761     -1.262197
   2.90781     -1.329133
   2.85800     -1.416406
   2.80820     -1.518998
   2.75839     -1.631874
   2.70858     -1.750385
   2.65878     -1.870455
   2.60897     -1.988636
   2.55917     -2.102081
   2.50936     -2.208464
   2.45956     -2.305911
   2.40975     -2.392919
   2.35995     -2.468298
   2.31014     -2.531118
   2.26034     -2.580666
   2.21053     -2.616416
   2.16073     -2.638005
   2.11092     -2.645220
   2.11092     -2.645220
   2.05809     -2.641964
   2.00527     -2.632032
   1.95244     -2.614987
   1.89962     -2.590130
   1.84679     -2.556586
   1.79396     -2.513371
   1.74114     -2.459505
   1.68831     -2.394144
   1.63548     -2.316792
   1.58266     -2.227615
   1.52983     -2.127950
   1.47700     -2.021042
   1.42418     -1.912938
   1.37135     -1.813130
   1.31852     -1.733830
   1.26570     -1.685940
   1.21287     -1.672069
   1.16004     -1.673200
   1.10722     -1.658800
   1.10722     -1.658800
   1.08961     -1.650656
   1.07200     -1.726403
   1.05439     -1.846096
   1.03678     -1.966372
   1.01917     -2.086148
   1.00157     -2.204477
   0.98396     -2.320519
   0.96635     -2.433504
   0.94874     -2.542716
   0.93113     -2.647473
   0.91352     -2.747126
   0.89591     -2.841062
   0.87830     -2.928708
   0.86069     -3.009544
   0.84309     -3.083118
   0.82548     -3.149068
   0.80787     -3.207132
   0.79026     -3.257166
   0.77265     -3.299145
   0.77265     -3.299145
   0.73198     -3.139710
   0.69132     -2.966395
   0.65065     -2.780938
   0.60999     -2.585064
   0.56932     -2.380548
   0.52866     -2.169272
   0.48799     -2.155194
   0.44732     -2.290579
   0.40666     -2.405194
   0.36599     -2.497249
   0.32533     -2.566772
   0.28466     -2.615261
   0.24399     -2.645320
   0.20333     -2.660310
   0.16266     -2.664045
   0.12200     -2.660550
   0.08133     -2.653846
   0.04067     -2.647710
   0.00000     -2.645220
 
# Band-Index   13
   0.00000     -2.645220
   0.04067     -2.640696
   0.08133     -2.627130
   0.12200     -2.604595
   0.16266     -2.573199
   0.20333     -2.533101
   0.24399     -2.484502
   0.28466     -2.457622
   0.32533     -2.566772
   0.36599     -2.497249
   0.40666     -2.405194
   0.44732     -2.290579
   0.48799     -2.155194
   0.52866     -2.002942
   0.56932     -1.840141
   0.60999     -1.725726
   0.65065     -1.616050
   0.69132     -1.504166
   0.73198     -1.391084
   0.77265     -1.277869
   0.77265     -1.277869
   0.79026     -1.305985
   0.80787     -1.333781
   0.82548     -1.361125
   0.84309     -1.387893
   0.86069     -1.413969
   0.87830     -1.439245
   0.89591     -1.463622
   0.91352     -1.487009
   0.93113     -1.509321
   0.94874     -1.530480
   0.96635     -1.550412
   0.98396     -1.569050
   1.00157     -1.586335
   1.01917     -1.602214
   1.03678     -1.616628
   1.05439     -1.629534
   1.07200     -1.640889
   1.08961     -1.638251
   1.10722     -1.651873
   1.10722     -1.651873
   1.16004     -1.669621
   1.21287     -1.670477
   1.26570     -1.685940
   1.31852     -1.733830
   1.37135     -1.813130
   1.42418     -1.885404
   1.47700     -1.999521
   1.52983     -2.127950
   1.58266     -2.227615
   1.63548     -2.316792
   1.68831     -2.394144
   1.74114     -2.459505
   1.79396     -2.513371
   1.84679     -2.434263
   1.89962     -2.509188
   1.95244     -2.568267
   2.00527     -2.610884
   2.05809     -2.636618
   2.11092     -2.645220
   2.11092     -2.645220
   2.16073     -2.638005
   2.21053     -2.616416
   2.26034     -2.580666
   2.31014     -2.531118
   2.35995     -2.468298
   2.40975     -2.392919
   2.45956     -2.305911
   2.50936     -2.208464
   2.55917     -2.102081
   2.60897     -1.988636
   2.65878     -1.870455
   2.70858     -1.750385
   2.75839     -1.631874
   2.80820     -1.518998
   2.85800     -1.416406
   2.90781     -1.329133
   2.95761     -1.262197
   3.00742     -1.219990
   3.05722     -1.205556
   3.05722     -1.205556
   3.07755     -1.207717
   3.09789     -1.214198
   3.11822     -1.225000
   3.13855     -1.240120
   3.15889     -1.259550
   3.17922     -1.283276
   3.19955     -1.311279
   3.21988     -1.343521
   3.24022     -1.379960
   3.26055     -1.420522
   3.28088     -1.465121
   3.30122     -1.513644
   3.32155     -1.565954
   3.34188     -1.621891
   3.36222     -1.681266
   3.38255     -1.727454
   3.40288     -1.760612
   3.42321     -1.790820
   3.44355     -1.817761
   3.44355     -1.817761
   3.46388     -1.838618
   3.48421     -1.892868
   3.50455     -1.913080
   3.52488     -1.886926
   3.54521     -1.854982
   3.56554     -1.818234
   3.58588     -1.777675
   3.60621     -1.734266
   3.62654     -1.688911
   3.64688     -1.642440
   3.66721     -1.595615
   3.68754     -1.549123
   3.70787     -1.503592
   3.72821     -1.459582
   3.74854     -1.417596
   3.76887     -1.378074
   3.78921     -1.341400
   3.80954     -1.307906
   3.82987     -1.277869
 
# Band-Index   14
   3.82987     -1.277869
   3.80954     -1.307906
   3.78921     -1.341400
   3.76887     -1.378074
   3.74854     -1.417596
   3.72821     -1.459582
   3.70787     -1.503592
   3.68754     -1.549123
   3.66721     -1.595615
   3.64688     -1.642440
   3.62654     -1.688911
   3.60621     -1.734266
   3.58588     -1.777675
   3.56554     -1.818234
   3.54521     -1.854982
   3.52488     -1.886926
   3.50455     -1.913080
   3.48421     -1.892868
   3.46388     -1.838618
   3.44355     -1.817761
   3.44355     -1.817761
   3.42321     -1.790820
   3.40288     -1.760612
   3.38255     -1.727454
   3.36222     -1.681266
   3.34188     -1.621891
   3.32155     -1.565954
   3.30122     -1.513644
   3.28088     -1.465121
   3.26055     -1.420522
   3.24022     -1.379960
   3.21988     -1.343521
   3.19955     -1.311279
   3.17922     -1.283276
   3.15889     -1.259550
   3.13855     -1.240120
   3.11822     -1.225000
   3.09789     -1.214198
   3.07755     -1.207717
   3.05722     -1.205556
   3.05722     -1.205556
   3.00742     -1.219990
   2.95761     -1.262197
   2.90781     -1.329133
   2.85800     -1.416406
   2.80820     -1.518998
   2.75839     -1.631874
   2.70858     -1.750385
   2.65878     -1.870455
   2.60897     -1.988636
   2.55917     -2.102081
   2.50936     -2.208464
   2.45956     -2.305911
   2.40975     -2.392919
   2.35995     -2.246994
   2.31014     -1.794114
   2.26034     -1.342628
   2.21053     -0.898088
   2.16073     -0.469180
   2.11092     -0.135114
   2.11092     -0.135114
   2.05809     -0.489965
   2.00527     -0.936706
   1.95244     -1.395377
   1.89962     -1.857471
   1.84679     -2.317515
   1.79396     -2.344325
   1.74114     -2.240477
   1.68831     -2.124129
   1.63548     -1.997070
   1.58266     -1.861554
   1.52983     -1.720384
   1.47700     -1.682294
   1.42418     -1.724208
   1.37135     -1.572518
   1.31852     -1.621807
   1.26570     -1.655002
   1.21287     -1.670477
   1.16004     -1.669621
   1.10722     -1.651873
   1.10722     -1.651873
   1.08961     -1.638251
   1.07200     -1.620634
   1.05439     -1.599474
   1.03678     -1.575420
   1.01917     -1.549207
   1.00157     -1.521572
   0.98396     -1.493219
   0.96635     -1.464796
   0.94874     -1.436889
   0.93113     -1.410027
   0.91352     -1.384683
   0.89591     -1.361284
   0.87830     -1.340206
   0.86069     -1.321785
   0.84309     -1.306306
   0.82548     -1.294011
   0.80787     -1.285089
   0.79026     -1.279681
   0.77265     -1.277869
   0.77265     -1.277869
   0.73198     -1.308324
   0.69132     -1.394292
   0.65065     -1.522240
   0.60999     -1.675863
   0.56932     -1.840141
   0.52866     -2.002942
   0.48799     -2.032559
   0.44732     -2.124842
   0.40666     -2.211012
   0.36599     -2.290519
   0.32533     -2.362875
   0.28466     -2.427658
   0.24399     -2.118073
   0.20333     -1.772841
   0.16266     -1.424052
   0.12200     -1.074432
   0.08133     -0.727714
   0.04067     -0.390655
   0.00000     -0.135114
 
# Band-Index   15
   0.00000     -0.135114
   0.04067     -0.152545
   0.08133     -0.204335
   0.12200     -0.288970
   0.16266     -0.403963
   0.20333     -0.545972
   0.24399     -0.711028
   0.28466     -0.894837
   0.32533     -1.093071
   0.36599     -1.301608
   0.40666     -1.516670
   0.44732     -1.734883
   0.48799     -1.953284
   0.52866     -1.934799
   0.56932     -1.832262
   0.60999     -1.675863
   0.65065     -1.522240
   0.69132     -1.394292
   0.73198     -1.308324
   0.77265     -1.277869
   0.77265     -1.277869
   0.79026     -1.279681
   0.80787     -1.285089
   0.82548     -1.294011
   0.84309     -1.306306
   0.86069     -1.321785
   0.87830     -1.340206
   0.89591     -1.361284
   0.91352     -1.384683
   0.93113     -1.410027
   0.94874     -1.436889
   0.96635     -1.464796
   0.98396     -1.493219
   1.00157     -1.521572
   1.01917     -1.549207
   1.03678     -1.575420
   1.05439     -1.599474
   1.07200     -1.620634
   1.08961     -1.608569
   1.10722     -1.494139
   1.10722     -1.494139
   1.16004     -1.192139
   1.21287     -1.011955
   1.26570     -1.075453
   1.31852     -1.189010
   1.37135     -1.443237
   1.42418     -1.507401
   1.47700     -1.577017
   1.52983     -1.480005
   1.58266     -1.281138
   1.63548     -1.103306
   1.68831     -0.973215
   1.74114     -0.836077
   1.79396     -0.695546
   1.84679     -0.556422
   1.89962     -0.424868
   1.95244     -0.308488
   2.00527     -0.215969
   2.05809     -0.155961
   2.11092     -0.135114
   2.11092     -0.135114
   2.16073     -0.146283
   2.21053     -0.178872
   2.26034     -0.230351
   2.31014     -0.297118
   2.35995     -0.375135
   2.40975     -0.460432
   2.45956     -0.549421
   2.50936     -0.639030
   2.55917     -0.726720
   2.60897     -0.810442
   2.65878     -0.888562
   2.70858     -0.959802
   2.75839     -1.023159
   2.80820     -1.077855
   2.85800     -1.123306
   2.90781     -1.159069
   2.95761     -1.184828
   3.00742     -1.200364
   3.05722     -1.205556
   3.05722     -1.205556
   3.07755     -1.206593
   3.09789     -1.209694
   3.11822     -1.214825
   3.13855     -1.221927
   3.15889     -1.230927
   3.17922     -1.241727
   3.19955     -1.254216
   3.21988     -1.268266
   3.24022     -1.283740
   3.26055     -1.300489
   3.28088     -1.318355
   3.30122     -1.337180
   3.32155     -1.356802
   3.34188     -1.377053
   3.36222     -1.397776
   3.38255     -1.418811
   3.40288     -1.440002
   3.42321     -1.461199
   3.44355     -1.482257
   3.44355     -1.482257
   3.46388     -1.468063
   3.48421     -1.433614
   3.50455     -1.391553
   3.52488     -1.349326
   3.54521     -1.310324
   3.56554     -1.275997
   3.58588     -1.246899
   3.60621     -1.223163
   3.62654     -1.204722
   3.64688     -1.191427
   3.66721     -1.183101
   3.68754     -1.179570
   3.70787     -1.180683
   3.72821     -1.186302
   3.74854     -1.196312
   3.76887     -1.210597
   3.78921     -1.229043
   3.80954     -1.251518
   3.82987     -1.277869
 
# Band-Index   16
   3.82987     -1.277869
   3.80954     -1.251518
   3.78921     -1.229043
   3.76887     -1.210597
   3.74854     -1.196312
   3.72821     -1.186302
   3.70787     -1.180683
   3.68754     -1.179570
   3.66721     -1.183101
   3.64688     -1.191427
   3.62654     -1.204722
   3.60621     -1.223163
   3.58588     -1.246899
   3.56554     -1.275997
   3.54521     -1.310324
   3.52488     -1.349326
   3.50455     -1.391553
   3.48421     -1.433614
   3.46388     -1.468063
   3.44355     -1.482257
   3.44355     -1.482257
   3.42321     -1.461199
   3.40288     -1.440002
   3.38255     -1.418811
   3.36222     -1.397776
   3.34188     -1.377053
   3.32155     -1.356802
   3.30122     -1.337180
   3.28088     -1.318355
   3.26055     -1.300489
   3.24022     -1.283740
   3.21988     -1.268266
   3.19955     -1.254216
   3.17922     -1.241727
   3.15889     -1.230927
   3.13855     -1.221927
   3.11822     -1.214825
   3.09789     -1.209694
   3.07755     -1.206593
   3.05722     -1.205556
   3.05722     -1.205556
   3.00742     -1.200364
   2.95761     -1.184828
   2.90781     -1.159069
   2.85800     -1.123306
   2.80820     -1.077855
   2.75839     -1.023159
   2.70858     -0.959802
   2.65878     -0.888562
   2.60897     -0.810442
   2.55917     -0.726720
   2.50936     -0.639030
   2.45956     -0.549421
   2.40975     -0.460432
   2.35995     -0.375135
   2.31014     -0.297118
   2.26034     -0.230351
   2.21053     -0.178872
   2.16073     -0.146283
   2.11092     -0.135114
   2.11092     -0.135114
   2.05809     -0.147634
   2.00527     -0.185259
   1.95244     -0.248062
   1.89962     -0.335810
   1.84679     -0.447608
   1.79396     -0.581677
   1.74114     -0.735393
   1.68831     -0.905520
   1.63548     -1.088579
   1.58266     -1.223584
   1.52983     -1.331982
   1.47700     -1.426960
   1.42418     -1.435643
   1.37135     -1.301188
   1.31852     -1.179193
   1.26570     -1.019049
   1.21287     -0.995386
   1.16004     -0.943139
   1.10722     -0.920753
   1.10722     -0.920753
   1.08961     -0.919901
   1.07200     -0.922237
   1.05439     -0.927644
   1.03678     -0.935978
   1.01917     -0.947077
   1.00157     -0.960753
   0.98396     -0.976810
   0.96635     -0.995037
   0.94874     -1.015220
   0.93113     -1.037139
   0.91352     -1.060574
   0.89591     -1.085308
   0.87830     -1.111127
   0.86069     -1.137828
   0.84309     -1.165208
   0.82548     -1.193079
   0.80787     -1.221259
   0.79026     -1.249576
   0.77265     -1.277869
   0.77265     -1.277869
   0.73198     -1.165630
   0.69132     -1.055503
   0.65065     -0.948616
   0.60999     -0.846058
   0.56932     -0.748836
   0.52866     -0.657840
   0.48799     -0.573803
   0.44732     -0.497260
   0.40666     -0.428559
   0.36599     -0.367827
   0.32533     -0.315003
   0.28466     -0.269861
   0.24399     -0.232047
   0.20333     -0.201131
   0.16266     -0.176648
   0.12200     -0.158150
   0.08133     -0.145245
   0.04067     -0.137631
   0.00000     -0.135114
 
# Band-Index   17
   0.00000      0.042486
   0.04067      0.282156
   0.08133      0.571341
   0.12200      0.837855
   0.16266      1.075611
   0.20333      1.283529
   0.24399      1.463720
   0.28466      1.620278
   0.32533      1.723501
   0.36599      1.791776
   0.40666      1.865338
   0.44732      1.943091
   0.48799      2.023651
   0.52866      2.105275
   0.56932      2.185832
   0.60999      2.262751
   0.65065      2.333035
   0.69132      2.393366
   0.73198      2.440345
   0.77265      2.470899
   0.77265      2.470899
   0.79026      2.463470
   0.80787      2.452479
   0.82548      2.438674
   0.84309      2.422704
   0.86069      2.405126
   0.87830      2.386417
   0.89591      2.346871
   0.91352      2.294272
   0.93113      2.232005
   0.94874      2.160578
   0.96635      2.080827
   0.98396      1.993844
   1.00157      1.900905
   1.01917      1.803396
   1.03678      1.702777
   1.05439      1.600565
   1.07200      1.498356
   1.08961      1.397866
   1.10722      1.300988
   1.10722      1.300988
   1.16004      1.055393
   1.21287      0.939801
   1.26570      1.019212
   1.31852      1.263719
   1.37135      1.581563
   1.42418      1.889175
   1.47700      1.958424
   1.52983      1.928239
   1.58266      1.893368
   1.63548      1.851656
   1.68831      1.799229
   1.74114      1.729446
   1.79396      1.632139
   1.84679      1.494092
   1.89962      1.302070
   1.95244      1.048108
   2.00527      0.733699
   2.05809      0.370266
   2.11092      0.042486
   2.11092      0.042486
   2.16073      0.345007
   2.21053      0.675892
   2.26034      0.947390
   2.31014      1.142801
   2.35995      1.257685
   2.40975      1.301907
   2.45956      1.293861
   2.50936      1.252162
   2.55917      1.191433
   2.60897      1.121911
   2.65878      1.050436
   2.70858      0.981523
   2.75839      0.918153
   2.80820      0.862309
   2.85800      0.815311
   2.90781      0.778038
   2.95761      0.751065
   3.00742      0.734750
   3.05722      0.729291
   3.05722      0.729291
   3.07755      0.735233
   3.09789      0.752882
   3.11822      0.781733
   3.13855      0.821015
   3.15889      0.869774
   3.17922      0.926956
   3.19955      0.991476
   3.21988      1.062260
   3.24022      1.138273
   3.26055      1.218522
   3.28088      1.302055
   3.30122      1.387947
   3.32155      1.475287
   3.34188      1.563164
   3.36222      1.650641
   3.38255      1.736753
   3.40288      1.820496
   3.42321      1.900814
   3.44355      1.976610
   3.44355      1.976610
   3.46388      1.983336
   3.48421      2.003161
   3.50455      2.035038
   3.52488      2.077262
   3.54521      2.127528
   3.56554      2.183030
   3.58588      2.240601
   3.60621      2.296938
   3.62654      2.348906
   3.64688      2.393903
   3.66721      2.430190
   3.68754      2.457072
   3.70787      2.474860
   3.72821      2.473171
   3.74854      2.466619
   3.76887      2.463511
   3.78921      2.463544
   3.80954      2.466233
   3.82987      2.470899
 
# Band-Index   18
   3.82987      2.470899
   3.80954      2.466233
   3.78921      2.463544
   3.76887      2.463511
   3.74854      2.466619
   3.72821      2.473171
   3.70787      2.474860
   3.68754      2.457072
   3.66721      2.430190
   3.64688      2.393903
   3.62654      2.348906
   3.60621      2.296938
   3.58588      2.240601
   3.56554      2.183030
   3.54521      2.127528
   3.52488      2.077262
   3.50455      2.035038
   3.48421      2.003161
   3.46388      1.983336
   3.44355      1.976610
   3.44355      1.976610
   3.42321      1.900814
   3.40288      1.820496
   3.38255      1.736753
   3.36222      1.650641
   3.34188      1.563164
   3.32155      1.475287
   3.30122      1.387947
   3.28088      1.302055
   3.26055      1.218522
   3.24022      1.138273
   3.21988      1.062260
   3.19955      0.991476
   3.17922      0.926956
   3.15889      0.869774
   3.13855      0.821015
   3.11822      0.781733
   3.09789      0.752882
   3.07755      0.735233
   3.05722      0.729291
   3.05722      0.729291
   3.00742      0.811714
   2.95761      1.023998
   2.90781      1.302396
   2.85800      1.593684
   2.80820      1.853148
   2.75839      2.040366
   2.70858      2.131965
   2.65878      2.136141
   2.60897      2.081227
   2.55917      1.994636
   2.50936      1.895181
   2.45956      1.794396
   2.40975      1.699217
   2.35995      1.613820
   2.31014      1.540640
   2.26034      1.480762
   2.21053      1.433776
   2.16073      1.398559
   2.11092      1.382843
   2.11092      1.382843
   2.05809      1.381343
   2.00527      1.394263
   1.95244      1.433632
   1.89962      1.499441
   1.84679      1.588987
   1.79396      1.698737
   1.74114      1.823878
   1.68831      1.956842
   1.63548      2.084364
   1.58266      2.182054
   1.52983      2.208241
   1.47700      2.114143
   1.42418      1.985244
   1.37135      2.009837
   1.31852      2.033527
   1.26570      2.057953
   1.21287      2.080771
   1.16004      2.116454
   1.10722      2.153963
   1.10722      2.153963
   1.08961      2.167997
   1.07200      2.182833
   1.05439      2.198473
   1.03678      2.214906
   1.01917      2.232106
   1.00157      2.250027
   0.98396      2.268596
   0.96635      2.287725
   0.94874      2.307297
   0.93113      2.327161
   0.91352      2.347129
   0.89591      2.366973
   0.87830      2.389664
   0.86069      2.422875
   0.84309      2.447055
   0.82548      2.462990
   0.80787      2.471615
   0.79026      2.472030
   0.77265      2.470899
   0.77265      2.470899
   0.73198      2.482781
   0.69132      2.474998
   0.65065      2.447968
   0.60999      2.403314
   0.56932      2.343361
   0.52866      2.270567
   0.48799      2.187027
   0.44732      2.094129
   0.40666      1.992302
   0.36599      1.880869
   0.32533      1.757917
   0.28466      1.661346
   0.24399      1.605907
   0.20333      1.557493
   0.16266      1.515955
   0.12200      1.463370
   0.08133      1.412109
   0.04067      1.388298
   0.00000      1.382843
 
# Band-Index   19
   0.00000      1.382843
   0.04067      1.388298
   0.08133      1.412109
   0.12200      1.463370
   0.16266      1.545399
   0.20333      1.658214
   0.24399      1.800298
   0.28466      1.969334
   0.32533      2.162518
   0.36599      2.376513
   0.40666      2.606880
   0.44732      2.845790
   0.48799      3.072502
   0.52866      3.219127
   0.56932      3.187572
   0.60999      3.021299
   0.65065      2.817662
   0.69132      2.636868
   0.73198      2.514249
   0.77265      2.470899
   0.77265      2.470899
   0.79026      2.472030
   0.80787      2.475335
   0.82548      2.480555
   0.84309      2.487256
   0.86069      2.494823
   0.87830      2.502454
   0.89591      2.509172
   0.91352      2.513832
   0.93113      2.515174
   0.94874      2.511905
   0.96635      2.502831
   0.98396      2.487047
   1.00157      2.464116
   1.01917      2.434218
   1.03678      2.398187
   1.05439      2.357418
   1.07200      2.313705
   1.08961      2.269038
   1.10722      2.225438
   1.10722      2.225438
   1.16004      2.119449
   1.21287      2.080771
   1.26570      2.131171
   1.31852      2.269736
   1.37135      2.471386
   1.42418      2.680766
   1.47700      2.804787
   1.52983      2.779281
   1.58266      2.647390
   1.63548      2.471452
   1.68831      2.284713
   1.74114      2.103092
   1.79396      1.935100
   1.84679      1.785844
   1.89962      1.658522
   1.95244      1.554696
   2.00527      1.473437
   2.05809      1.411394
   2.11092      1.382843
   2.11092      1.382843
   2.16073      1.398559
   2.21053      1.433776
   2.26034      1.480762
   2.31014      1.540640
   2.35995      1.613820
   2.40975      1.699217
   2.45956      1.794396
   2.50936      1.895181
   2.55917      1.994636
   2.60897      2.081227
   2.65878      2.136141
   2.70858      2.131965
   2.75839      2.040366
   2.80820      1.853148
   2.85800      1.593684
   2.90781      1.302396
   2.95761      1.023998
   3.00742      0.811714
   3.05722      0.729291
   3.05722      0.729291
   3.07755      0.745195
   3.09789      0.791266
   3.11822      0.863252
   3.13855      0.955731
   3.15889      1.063361
   3.17922      1.181533
   3.19955      1.306517
   3.21988      1.435389
   3.24022      1.565877
   3.26055      1.696237
   3.28088      1.825141
   3.30122      1.951608
   3.32155      2.074944
   3.34188      2.194705
   3.36222      2.310648
   3.38255      2.422706
   3.40288      2.530949
   3.42321      2.635545
   3.44355      2.736735
   3.44355      2.736735
   3.46388      2.733203
   3.48421      2.722909
   3.50455      2.706708
   3.52488      2.685820
   3.54521      2.661624
   3.56554      2.635498
   3.58588      2.608700
   3.60621      2.582330
   3.62654      2.557308
   3.64688      2.534381
   3.66721      2.514136
   3.68754      2.497013
   3.70787      2.483306
   3.72821      2.484648
   3.74854      2.487998
   3.76887      2.486659
   3.78921      2.482353
   3.80954      2.476647
   3.82987      2.470899
 
# Band-Index   20
   3.82987      2.470899
   3.80954      2.476647
   3.78921      2.482353
   3.76887      2.486659
   3.74854      2.487998
   3.72821      2.484648
   3.70787      2.483306
   3.68754      2.497013
   3.66721      2.514136
   3.64688      2.534381
   3.62654      2.557308
   3.60621      2.582330
   3.58588      2.608700
   3.56554      2.635498
   3.54521      2.661624
   3.52488      2.685820
   3.50455      2.706708
   3.48421      2.722909
   3.46388      2.733203
   3.44355      2.736735
   3.44355      2.736735
   3.42321      2.635545
   3.40288      2.530949
   3.38255      2.422706
   3.36222      2.310648
   3.34188      2.194705
   3.32155      2.074944
   3.30122      1.951608
   3.28088      1.825141
   3.26055      1.696237
   3.24022      1.565877
   3.21988      1.435389
   3.19955      1.306517
   3.17922      1.181533
   3.15889      1.063361
   3.13855      0.955731
   3.11822      0.863252
   3.09789      0.791266
   3.07755      0.745195
   3.05722      0.729291
   3.05722      0.729291
   3.00742      0.811714
   2.95761      1.023998
   2.90781      1.302396
   2.85800      1.593684
   2.80820      1.853148
   2.75839      2.040366
   2.70858      2.131965
   2.65878      2.136141
   2.60897      2.081227
   2.55917      1.994636
   2.50936      1.895181
   2.45956      1.794396
   2.40975      1.699217
   2.35995      1.613820
   2.31014      1.540640
   2.26034      1.480762
   2.21053      1.433776
   2.16073      1.398559
   2.11092      1.382843
   2.11092      1.382843
   2.05809      1.411394
   2.00527      1.473437
   1.95244      1.554696
   1.89962      1.658522
   1.84679      1.785844
   1.79396      1.935100
   1.74114      2.103092
   1.68831      2.284713
   1.63548      2.471452
   1.58266      2.647390
   1.52983      2.779281
   1.47700      2.804787
   1.42418      2.680766
   1.37135      2.471386
   1.31852      2.269736
   1.26570      2.131171
   1.21287      2.084976
   1.16004      2.119449
   1.10722      2.225438
   1.10722      2.225438
   1.08961      2.269038
   1.07200      2.313705
   1.05439      2.357418
   1.03678      2.398187
   1.01917      2.434218
   1.00157      2.464116
   0.98396      2.487047
   0.96635      2.502831
   0.94874      2.511905
   0.93113      2.515174
   0.91352      2.513832
   0.89591      2.509172
   0.87830      2.502454
   0.86069      2.494823
   0.84309      2.487256
   0.82548      2.480555
   0.80787      2.475335
   0.79026      2.473924
   0.77265      2.470899
   0.77265      2.470899
   0.73198      2.514249
   0.69132      2.636868
   0.65065      2.817662
   0.60999      3.021299
   0.56932      3.187572
   0.52866      3.219127
   0.48799      3.072502
   0.44732      2.845790
   0.40666      2.606880
   0.36599      2.376513
   0.32533      2.162518
   0.28466      1.969334
   0.24399      1.800298
   0.20333      1.658214
   0.16266      1.545399
   0.12200      1.480065
   0.08133      1.445506
   0.04067      1.405686
   0.00000      1.382843
 
# Band-Index   21
   0.00000      1.526701
   0.04067      1.554715
   0.08133      1.630529
   0.12200      1.742699
   0.16266      1.884240
   0.20333      2.050390
   0.24399      2.237095
   0.28466      2.440353
   0.32533      2.655741
   0.36599      2.877736
   0.40666      3.098542
   0.44732      3.306351
   0.48799      3.487082
   0.52866      3.655618
   0.56932      3.879634
   0.60999      4.159182
   0.65065      4.465106
   0.69132      4.783777
   0.73198      5.105264
   0.77265      5.337886
   0.77265      5.337886
   0.79026      5.276221
   0.80787      5.168121
   0.82548      5.044190
   0.84309      4.918671
   0.86069      4.794979
   0.87830      4.675301
   0.89591      4.561504
   0.91352      4.455350
   0.93113      4.358574
   0.94874      4.272839
   0.96635      4.199636
   0.98396      4.140126
   1.00157      4.094952
   1.01917      4.064120
   1.03678      4.046956
   1.05439      4.042189
   1.07200      4.048120
   1.08961      4.062797
   1.10722      4.084163
   1.10722      4.084163
   1.16004      4.167854
   1.21287      4.239500
   1.26570      4.173881
   1.31852      4.103086
   1.37135      4.038051
   1.42418      3.974473
   1.47700      3.908445
   1.52983      3.837838
   1.58266      3.763256
   1.63548      3.594312
   1.68831      3.300703
   1.74114      2.979398
   1.79396      2.661266
   1.84679      2.363498
   1.89962      2.097447
   1.95244      1.871920
   2.00527      1.694489
   2.05809      1.573508
   2.11092      1.526701
   2.11092      1.526701
   2.16073      1.570732
   2.21053      1.709833
   2.26034      1.939033
   2.31014      2.241142
   2.35995      2.599477
   2.40975      2.999287
   2.45956      3.425639
   2.50936      3.857867
   2.55917      4.252982
   2.60897      4.421152
   2.65878      4.467111
   2.70858      4.339984
   2.75839      4.209170
   2.80820      4.163173
   2.85800      4.196070
   2.90781      4.274902
   2.95761      4.364101
   3.00742      4.432868
   3.05722      4.458665
   3.05722      4.458665
   3.07755      4.454409
   3.09789      4.441876
   3.11822      4.421735
   3.13855      4.395015
   3.15889      4.362996
   3.17922      4.327081
   3.19955      4.288703
   3.21988      4.249252
   3.24022      4.210008
   3.26055      4.172132
   3.28088      4.136636
   3.30122      4.104394
   3.32155      4.076139
   3.34188      4.052478
   3.36222      4.033905
   3.38255      4.020805
   3.40288      4.013477
   3.42321      3.998276
   3.44355      3.952890
   3.44355      3.952890
   3.46388      3.953741
   3.48421      3.956483
   3.50455      3.961693
   3.52488      3.970351
   3.54521      3.983866
   3.56554      4.004059
   3.58588      4.033110
   3.60621      4.073397
   3.62654      4.127231
   3.64688      4.196508
   3.66721      4.282360
   3.68754      4.384947
   3.70787      4.503443
   3.72821      4.636186
   3.74854      4.780875
   3.76887      4.934589
   3.78921      5.093168
   3.80954      5.246456
   3.82987      5.337886
 
# Band-Index   22
   3.82987      5.337886
   3.80954      5.246456
   3.78921      5.093168
   3.76887      4.934589
   3.74854      4.780875
   3.72821      4.636186
   3.70787      4.503443
   3.68754      4.384947
   3.66721      4.282360
   3.64688      4.196508
   3.62654      4.127231
   3.60621      4.073397
   3.58588      4.033110
   3.56554      4.004059
   3.54521      3.983866
   3.52488      3.970351
   3.50455      3.961693
   3.48421      3.956483
   3.46388      3.953741
   3.44355      3.952890
   3.44355      3.952890
   3.42321      3.998276
   3.40288      4.013477
   3.38255      4.020805
   3.36222      4.033905
   3.34188      4.052478
   3.32155      4.076139
   3.30122      4.104394
   3.28088      4.136636
   3.26055      4.172132
   3.24022      4.210008
   3.21988      4.249252
   3.19955      4.288703
   3.17922      4.327081
   3.15889      4.362996
   3.13855      4.395015
   3.11822      4.421735
   3.09789      4.441876
   3.07755      4.454409
   3.05722      4.458665
   3.05722      4.458665
   3.00742      4.432868
   2.95761      4.364101
   2.90781      4.274902
   2.85800      4.196070
   2.80820      4.163173
   2.75839      4.209170
   2.70858      4.339984
   2.65878      4.467111
   2.60897      4.421152
   2.55917      4.252982
   2.50936      3.857867
   2.45956      3.425639
   2.40975      2.999287
   2.35995      2.599477
   2.31014      2.241142
   2.26034      1.939033
   2.21053      1.709833
   2.16073      1.570732
   2.11092      1.526701
   2.11092      1.526701
   2.05809      1.576288
   2.00527      1.741076
   1.95244      2.016489
   1.89962      2.376656
   1.84679      2.799110
   1.79396      3.265159
   1.74114      3.556415
   1.68831      3.617053
   1.63548      3.687965
   1.58266      3.805601
   1.52983      3.890592
   1.47700      3.915361
   1.42418      3.982891
   1.37135      4.097284
   1.31852      4.196818
   1.26570      4.254106
   1.21287      4.239500
   1.16004      4.167854
   1.10722      4.084163
   1.10722      4.084163
   1.08961      4.062797
   1.07200      4.048120
   1.05439      4.042189
   1.03678      4.046956
   1.01917      4.064120
   1.00157      4.094952
   0.98396      4.140126
   0.96635      4.199636
   0.94874      4.272839
   0.93113      4.358574
   0.91352      4.455350
   0.89591      4.561504
   0.87830      4.675301
   0.86069      4.794979
   0.84309      4.918671
   0.82548      5.044190
   0.80787      5.168121
   0.79026      5.280955
   0.77265      5.337886
   0.77265      5.337886
   0.73198      5.105264
   0.69132      4.783777
   0.65065      4.465106
   0.60999      4.159182
   0.56932      3.879634
   0.52866      3.655618
   0.48799      3.487082
   0.44732      3.306351
   0.40666      3.098542
   0.36599      2.877736
   0.32533      2.655741
   0.28466      2.440353
   0.24399      2.237095
   0.20333      2.050390
   0.16266      1.884240
   0.12200      1.742699
   0.08133      1.630529
   0.04067      1.554715
   0.00000      1.526701
 
# Band-Index   23
   0.00000      1.526701
   0.04067      1.556740
   0.08133      1.670961
   0.12200      1.879793
   0.16266      2.162014
   0.20333      2.499215
   0.24399      2.877940
   0.28466      3.287484
   0.32533      3.718263
   0.36599      3.818538
   0.40666      3.918304
   0.44732      4.034253
   0.48799      4.165775
   0.52866      4.312216
   0.56932      4.472834
   0.60999      4.646694
   0.65065      4.832274
   0.69132      5.025755
   0.73198      5.208920
   0.77265      5.337886
   0.77265      5.337886
   0.79026      5.280955
   0.80787      5.175365
   0.82548      5.070195
   0.84309      4.970394
   0.86069      4.879325
   0.87830      4.798650
   0.89591      4.729278
   0.91352      4.671576
   0.93113      4.625436
   0.94874      4.590312
   0.96635      4.565292
   0.98396      4.549176
   1.00157      4.540586
   1.01917      4.538030
   1.03678      4.539980
   1.05439      4.528152
   1.07200      4.498850
   1.08961      4.475400
   1.10722      4.451074
   1.10722      4.451074
   1.16004      4.345975
   1.21287      4.254029
   1.26570      4.254106
   1.31852      4.196818
   1.37135      4.097284
   1.42418      4.020965
   1.47700      4.062858
   1.52983      4.274415
   1.58266      4.552765
   1.63548      4.590428
   1.68831      4.234356
   1.74114      3.755057
   1.79396      3.265159
   1.84679      2.799110
   1.89962      2.376656
   1.95244      2.016489
   2.00527      1.741076
   2.05809      1.576288
   2.11092      1.526701
   2.11092      1.526701
   2.16073      1.570732
   2.21053      1.709833
   2.26034      1.939033
   2.31014      2.241142
   2.35995      2.599477
   2.40975      2.999287
   2.45956      3.425639
   2.50936      3.857867
   2.55917      4.252982
   2.60897      4.504065
   2.65878      4.493815
   2.70858      4.339984
   2.75839      4.209170
   2.80820      4.163173
   2.85800      4.196070
   2.90781      4.274902
   2.95761      4.364101
   3.00742      4.432868
   3.05722      4.458665
   3.05722      4.458665
   3.07755      4.456521
   3.09789      4.450139
   3.11822      4.439665
   3.13855      4.425340
   3.15889      4.407467
   3.17922      4.386411
   3.19955      4.362567
   3.21988      4.336346
   3.24022      4.308151
   3.26055      4.278356
   3.28088      4.247286
   3.30122      4.215197
   3.32155      4.182243
   3.34188      4.148454
   3.36222      4.113677
   3.38255      4.077540
   3.40288      4.039397
   3.42321      4.012126
   3.44355      4.016885
   3.44355      4.016885
   3.46388      4.024045
   3.48421      4.045204
   3.50455      4.079493
   3.52488      4.125661
   3.54521      4.182275
   3.56554      4.247887
   3.58588      4.321130
   3.60621      4.400765
   3.62654      4.485677
   3.64688      4.574855
   3.66721      4.667363
   3.68754      4.762303
   3.70787      4.858770
   3.72821      4.955783
   3.74854      5.052196
   3.76887      5.146427
   3.78921      5.235575
   3.80954      5.311115
   3.82987      5.337886
 
# Band-Index   24
   3.82987      5.337886
   3.80954      5.311115
   3.78921      5.235575
   3.76887      5.146427
   3.74854      5.052196
   3.72821      4.955783
   3.70787      4.858770
   3.68754      4.762303
   3.66721      4.667363
   3.64688      4.574855
   3.62654      4.485677
   3.60621      4.400765
   3.58588      4.321130
   3.56554      4.247887
   3.54521      4.182275
   3.52488      4.125661
   3.50455      4.079493
   3.48421      4.045204
   3.46388      4.024045
   3.44355      4.016885
   3.44355      4.016885
   3.42321      4.012126
   3.40288      4.039397
   3.38255      4.077540
   3.36222      4.113677
   3.34188      4.148454
   3.32155      4.182243
   3.30122      4.215197
   3.28088      4.247286
   3.26055      4.278356
   3.24022      4.308151
   3.21988      4.336346
   3.19955      4.362567
   3.17922      4.386411
   3.15889      4.407467
   3.13855      4.425340
   3.11822      4.439665
   3.09789      4.450139
   3.07755      4.456521
   3.05722      4.458665
   3.05722      4.458665
   3.00742      4.461230
   2.95761      4.468466
   2.90781      4.478981
   2.85800      4.490414
   2.80820      4.499436
   2.75839      4.501807
   2.70858      4.492667
   2.65878      4.493815
   2.60897      4.504065
   2.55917      4.352838
   2.50936      4.263124
   2.45956      4.156062
   2.40975      4.038244
   2.35995      3.917811
   2.31014      3.803469
   2.26034      3.674748
   2.21053      3.600888
   2.16073      3.568500
   2.11092      3.559987
   2.11092      3.559987
   2.05809      3.550674
   2.00527      3.527384
   1.95244      3.501439
   1.89962      3.485240
   1.84679      3.487576
   1.79396      3.511783
   1.74114      3.755057
   1.68831      4.234356
   1.63548      4.590428
   1.58266      4.552765
   1.52983      4.274415
   1.47700      4.062858
   1.42418      4.020965
   1.37135      4.109801
   1.31852      4.263161
   1.26570      4.405896
   1.21287      4.491376
   1.16004      4.444707
   1.10722      4.458066
   1.10722      4.458066
   1.08961      4.489137
   1.07200      4.528724
   1.05439      4.544914
   1.03678      4.562989
   1.01917      4.603000
   1.00157      4.647777
   0.98396      4.696866
   0.96635      4.749770
   0.94874      4.805942
   0.93113      4.864791
   0.91352      4.925689
   0.89591      4.987962
   0.87830      5.050900
   0.86069      5.113753
   0.84309      5.171126
   0.82548      5.226921
   0.80787      5.280577
   0.79026      5.325894
   0.77265      5.337886
   0.77265      5.337886
   0.73198      5.211389
   0.69132      5.028100
   0.65065      4.858006
   0.60999      4.698672
   0.56932      4.550089
   0.52866      4.412213
   0.48799      4.284971
   0.44732      4.168292
   0.40666      4.062075
   0.36599      3.966232
   0.32533      3.735445
   0.28466      3.669288
   0.24399      3.619905
   0.20333      3.586436
   0.16266      3.567043
   0.12200      3.558720
   0.08133      3.557481
   0.04067      3.559034
   0.00000      3.559987
 
# Band-Index   25
   0.00000      3.559987
   0.04067      3.564984
   0.08133      3.579978
   0.12200      3.604974
   0.16266      3.639985
   0.20333      3.685028
   0.24399      3.740131
   0.28466      3.805329
   0.32533      3.880675
   0.36599      4.159942
   0.40666      4.598519
   0.44732      5.010846
   0.48799      5.065797
   0.52866      4.884636
   0.56932      4.865259
   0.60999      4.962510
   0.65065      5.105801
   0.69132      5.244393
   0.73198      5.344339
   0.77265      5.400373
   0.77265      5.400373
   0.79026      5.349141
   0.80787      5.294189
   0.82548      5.236158
   0.84309      5.175763
   0.86069      5.115075
   0.87830      5.059518
   0.89591      5.004818
   0.91352      4.951176
   0.93113      4.898719
   0.94874      4.847530
   0.96635      4.797680
   0.98396      4.749213
   1.00157      4.702167
   1.01917      4.656569
   1.03678      4.612452
   1.05439      4.569832
   1.07200      4.551348
   1.08961      4.557860
   1.10722      4.563099
   1.10722      4.563099
   1.16004      4.559441
   1.21287      4.509230
   1.26570      4.597814
   1.31852      4.760938
   1.37135      4.975906
   1.42418      5.237054
   1.47700      5.282462
   1.52983      5.189263
   1.58266      5.072220
   1.63548      4.929171
   1.68831      4.761127
   1.74114      4.572762
   1.79396      4.372107
   1.84679      4.169646
   1.89962      3.977423
   1.95244      3.808289
   2.00527      3.670510
   2.05809      3.587206
   2.11092      3.559987
   2.11092      3.559987
   2.16073      3.576874
   2.21053      3.626123
   2.26034      3.703700
   2.31014      3.803469
   2.35995      3.917811
   2.40975      4.038244
   2.45956      4.156062
   2.50936      4.263124
   2.55917      4.352838
   2.60897      4.504065
   2.65878      4.493815
   2.70858      4.492667
   2.75839      4.501807
   2.80820      4.499436
   2.85800      4.490414
   2.90781      4.478981
   2.95761      4.468466
   3.00742      4.461230
   3.05722      4.458665
   3.05722      4.458665
   3.07755      4.461574
   3.09789      4.470284
   3.11822      4.484741
   3.13855      4.504857
   3.15889      4.530507
   3.17922      4.561535
   3.19955      4.597755
   3.21988      4.638949
   3.24022      4.684873
   3.26055      4.735255
   3.28088      4.789801
   3.30122      4.848190
   3.32155      4.910084
   3.34188      4.975122
   3.36222      5.042919
   3.38255      5.113071
   3.40288      5.185158
   3.42321      5.258741
   3.44355      5.333359
   3.44355      5.333359
   3.46388      5.330829
   3.48421      5.323570
   3.50455      5.312497
   3.52488      5.298908
   3.54521      5.284241
   3.56554      5.269890
   3.58588      5.257072
   3.60621      5.246779
   3.62654      5.239755
   3.64688      5.236511
   3.66721      5.237352
   3.68754      5.242417
   3.70787      5.251706
   3.72821      5.265118
   3.74854      5.282466
   3.76887      5.303492
   3.78921      5.327907
   3.80954      5.356199
   3.82987      5.400373
 
# Band-Index   26
   3.82987      5.400373
   3.80954      5.356199
   3.78921      5.327907
   3.76887      5.303492
   3.74854      5.282466
   3.72821      5.265118
   3.70787      5.251706
   3.68754      5.242417
   3.66721      5.237352
   3.64688      5.236511
   3.62654      5.239755
   3.60621      5.246779
   3.58588      5.257072
   3.56554      5.269890
   3.54521      5.284241
   3.52488      5.298908
   3.50455      5.312497
   3.48421      5.323570
   3.46388      5.330829
   3.44355      5.333359
   3.44355      5.333359
   3.42321      5.258741
   3.40288      5.185158
   3.38255      5.113071
   3.36222      5.042919
   3.34188      4.975122
   3.32155      4.910084
   3.30122      4.848190
   3.28088      4.789801
   3.26055      4.735255
   3.24022      4.684873
   3.21988      4.638949
   3.19955      4.597755
   3.17922      4.561535
   3.15889      4.530507
   3.13855      4.504857
   3.11822      4.484741
   3.09789      4.470284
   3.07755      4.461574
   3.05722      4.458665
   3.05722      4.458665
   3.00742      4.488652
   2.95761      4.577465
   2.90781      4.721876
   2.85800      4.917186
   2.80820      5.157912
   2.75839      5.438371
   2.70858      5.753012
   2.65878      6.073854
   2.60897      5.796396
   2.55917      5.385860
   2.50936      4.990655
   2.45956      4.621679
   2.40975      4.291976
   2.35995      4.016850
   2.31014      3.809835
   2.26034      3.703700
   2.21053      3.626123
   2.16073      3.576874
   2.11092      3.559987
   2.11092      3.559987
   2.05809      3.589549
   2.00527      3.675122
   1.95244      3.813410
   1.89962      4.017133
   1.84679      4.275436
   1.79396      4.572039
   1.74114      4.881887
   1.68831      5.174504
   1.63548      5.420978
   1.58266      5.556711
   1.52983      5.549980
   1.47700      5.538587
   1.42418      5.355977
   1.37135      5.414713
   1.31852      5.463300
   1.26570      5.505493
   1.21287      5.537914
   1.16004      5.536788
   1.10722      5.537713
   1.10722      5.537713
   1.08961      5.534553
   1.07200      5.529285
   1.05439      5.522048
   1.03678      5.513114
   1.01917      5.502844
   1.00157      5.491628
   0.98396      5.479852
   0.96635      5.467875
   0.94874      5.456025
   0.93113      5.444582
   0.91352      5.433793
   0.89591      5.423865
   0.87830      5.414973
   0.86069      5.407269
   0.84309      5.400892
   0.82548      5.396008
   0.80787      5.392971
   0.79026      5.393382
   0.77265      5.400373
   0.77265      5.400373
   0.73198      5.344339
   0.69132      5.244393
   0.65065      5.105801
   0.60999      4.962510
   0.56932      4.865259
   0.52866      4.884636
   0.48799      5.065797
   0.44732      5.310757
   0.40666      5.196336
   0.36599      5.031839
   0.32533      4.826682
   0.28466      4.596857
   0.24399      4.360720
   0.20333      4.135757
   0.16266      3.936719
   0.12200      3.774500
   0.08133      3.655855
   0.04067      3.583999
   0.00000      3.559987
 
# Band-Index   27
   0.00000      7.288697
   0.04067      7.320969
   0.08133      7.415594
   0.12200      7.566500
   0.16266      7.764908
   0.20333      8.000412
   0.24399      7.665504
   0.28466      7.172954
   0.32533      6.686538
   0.36599      6.216326
   0.40666      5.774410
   0.44732      5.379655
   0.48799      5.356428
   0.52866      5.398979
   0.56932      5.395903
   0.60999      5.381139
   0.65065      5.368721
   0.69132      5.372212
   0.73198      5.413878
   0.77265      5.400373
   0.77265      5.400373
   0.79026      5.393382
   0.80787      5.392971
   0.82548      5.396008
   0.84309      5.400892
   0.86069      5.407269
   0.87830      5.414973
   0.89591      5.423865
   0.91352      5.433793
   0.93113      5.444582
   0.94874      5.456025
   0.96635      5.467875
   0.98396      5.479852
   1.00157      5.491628
   1.01917      5.502844
   1.03678      5.513114
   1.05439      5.522048
   1.07200      5.529285
   1.08961      5.534553
   1.10722      5.537713
   1.10722      5.537713
   1.16004      5.536788
   1.21287      5.537914
   1.26570      5.577212
   1.31852      5.677289
   1.37135      5.825486
   1.42418      5.983844
   1.47700      5.754679
   1.52983      5.748167
   1.58266      5.607984
   1.63548      5.661329
   1.68831      6.013488
   1.74114      6.524736
   1.79396      7.086743
   1.84679      7.664889
   1.89962      8.042121
   1.95244      7.741588
   2.00527      7.499525
   2.05809      7.342939
   2.11092      7.288697
   2.11092      7.288697
   2.16073      7.336976
   2.21053      7.477013
   2.26034      7.695142
   2.31014      7.969564
   2.35995      7.926847
   2.40975      7.420405
   2.45956      6.926173
   2.50936      6.468615
   2.55917      6.095303
   2.60897      5.920574
   2.65878      6.073854
   2.70858      5.753012
   2.75839      5.438371
   2.80820      5.157912
   2.85800      4.917186
   2.90781      4.721876
   2.95761      4.577465
   3.00742      4.488652
   3.05722      4.458665
   3.05722      4.458665
   3.07755      4.463494
   3.09789      4.478006
   3.11822      4.502265
   3.13855      4.536377
   3.15889      4.580464
   3.17922      4.634658
   3.19955      4.699072
   3.21988      4.773769
   3.24022      4.858717
   3.26055      4.953750
   3.28088      5.058495
   3.30122      5.172304
   3.32155      5.294143
   3.34188      5.422452
   3.36222      5.554883
   3.38255      5.687980
   3.40288      5.816618
   3.42321      5.933383
   3.44355      5.954845
   3.44355      5.954845
   3.46388      5.956276
   3.48421      5.960275
   3.50455      5.966027
   3.52488      5.972377
   3.54521      5.949178
   3.56554      5.917287
   3.58588      5.881633
   3.60621      5.842972
   3.62654      5.802034
   3.64688      5.759513
   3.66721      5.716047
   3.68754      5.672238
   3.70787      5.628630
   3.72821      5.585740
   3.74854      5.544077
   3.76887      5.504213
   3.78921      5.466988
   3.80954      5.434194
   3.82987      5.400373
 
# Band-Index   28
   3.82987      5.400373
   3.80954      5.434194
   3.78921      5.466988
   3.76887      5.504213
   3.74854      5.544077
   3.72821      5.585740
   3.70787      5.628630
   3.68754      5.672238
   3.66721      5.716047
   3.64688      5.759513
   3.62654      5.802034
   3.60621      5.842972
   3.58588      5.881633
   3.56554      5.917287
   3.54521      5.949178
   3.52488      5.972377
   3.50455      5.966027
   3.48421      5.960275
   3.46388      5.956276
   3.44355      5.954845
   3.44355      5.954845
   3.42321      5.933383
   3.40288      5.816618
   3.38255      5.687980
   3.36222      5.554883
   3.34188      5.422452
   3.32155      5.294143
   3.30122      5.172304
   3.28088      5.058495
   3.26055      4.953750
   3.24022      4.858717
   3.21988      4.773769
   3.19955      4.699072
   3.17922      4.634658
   3.15889      4.580464
   3.13855      4.536377
   3.11822      4.502265
   3.09789      4.478006
   3.07755      4.463494
   3.05722      4.458665
   3.05722      4.458665
   3.00742      4.488652
   2.95761      4.577465
   2.90781      4.721876
   2.85800      4.917186
   2.80820      5.157912
   2.75839      5.438371
   2.70858      5.753012
   2.65878      6.073854
   2.60897      5.920574
   2.55917      6.095303
   2.50936      6.468615
   2.45956      6.926173
   2.40975      7.420405
   2.35995      7.926847
   2.31014      8.425121
   2.26034      8.889370
   2.21053      9.280151
   2.16073      9.543590
   2.11092      9.635551
   2.11092      9.635551
   2.05809      9.528718
   2.00527      9.221790
   1.95244      8.769438
   1.89962      8.235499
   1.84679      7.664889
   1.79396      7.086743
   1.74114      6.524736
   1.68831      6.013488
   1.63548      5.661329
   1.58266      5.722292
   1.52983      5.874911
   1.47700      5.870198
   1.42418      5.983844
   1.37135      5.825486
   1.31852      5.677289
   1.26570      5.577212
   1.21287      5.543840
   1.16004      5.579491
   1.10722      5.612008
   1.10722      5.612008
   1.08961      5.621807
   1.07200      5.630873
   1.05439      5.639037
   1.03678      5.646090
   1.01917      5.651794
   1.00157      5.655874
   0.98396      5.658006
   0.96635      5.657844
   0.94874      5.655007
   0.93113      5.649093
   0.91352      5.639675
   0.89591      5.626340
   0.87830      5.608699
   0.86069      5.586410
   0.84309      5.559217
   0.82548      5.526965
   0.80787      5.489632
   0.79026      5.447343
   0.77265      5.400373
   0.77265      5.400373
   0.73198      5.416945
   0.69132      5.495262
   0.65065      5.575797
   0.60999      5.642867
   0.56932      5.662643
   0.52866      5.580930
   0.48799      5.375283
   0.44732      5.379655
   0.40666      5.774410
   0.36599      6.216326
   0.32533      6.686538
   0.28466      7.172954
   0.24399      7.665504
   0.20333      8.153020
   0.16266      8.619899
   0.12200      9.041079
   0.08133      9.376057
   0.04067      9.568574
   0.00000      9.635551
 
# Band-Index   29
   0.00000      9.635551
   0.04067      9.577130
   0.08133      9.376057
   0.12200      9.041079
   0.16266      8.619899
   0.20333      8.153020
   0.24399      8.261238
   0.28466      8.125897
   0.32533      7.877556
   0.36599      7.648551
   0.40666      7.449349
   0.44732      7.279321
   0.48799      7.015700
   0.52866      6.758714
   0.56932      6.509377
   0.60999      6.268506
   0.65065      6.036725
   0.69132      5.814530
   0.73198      5.602316
   0.77265      5.548033
   0.77265      5.548033
   0.79026      5.544209
   0.80787      5.587994
   0.82548      5.645530
   0.84309      5.708117
   0.86069      5.773259
   0.87830      5.839974
   0.89591      5.907741
   0.91352      5.976222
   0.93113      6.045136
   0.94874      6.114224
   0.96635      6.183206
   0.98396      6.251785
   1.00157      6.319624
   1.01917      6.386334
   1.03678      6.451469
   1.05439      6.514503
   1.07200      6.558311
   1.08961      6.571556
   1.10722      6.585658
   1.10722      6.585658
   1.16004      6.643226
   1.21287      6.736618
   1.26570      6.545667
   1.31852      6.336144
   1.37135      6.153828
   1.42418      6.000290
   1.47700      6.081438
   1.52983      5.989095
   1.58266      5.722292
   1.63548      5.802013
   1.68831      6.206678
   1.74114      6.695872
   1.79396      7.227635
   1.84679      7.776761
   1.89962      8.235499
   1.95244      8.769438
   2.00527      9.221790
   2.05809      9.528718
   2.11092      9.635551
   2.11092      9.635551
   2.16073      9.543590
   2.21053      9.280151
   2.26034      8.889370
   2.31014      8.425121
   2.35995      7.926847
   2.40975      7.420405
   2.45956      6.926173
   2.50936      6.468615
   2.55917      6.095303
   2.60897      5.920574
   2.65878      6.096549
   2.70858      6.453278
   2.75839      6.898708
   2.80820      7.265919
   2.85800      7.433895
   2.90781      7.504813
   2.95761      7.526203
   3.00742      7.529751
   3.05722      7.529638
   3.05722      7.529638
   3.07755      7.531664
   3.09789      7.537446
   3.11822      7.546063
   3.13855      7.555870
   3.15889      7.564298
   3.17922      7.567590
   3.19955      7.560527
   3.21988      7.536424
   3.24022      7.487967
   3.26055      7.409373
   3.28088      7.299047
   3.30122      7.160445
   3.32155      7.000330
   3.34188      6.826267
   3.36222      6.645098
   3.38255      6.462631
   3.40288      6.283829
   3.42321      6.113156
   3.44355      6.028431
   3.44355      6.028431
   3.46388      6.025061
   3.48421      6.015055
   3.50455      5.998726
   3.52488      5.976561
   3.54521      5.978011
   3.56554      5.981604
   3.58588      5.981904
   3.60621      5.977757
   3.62654      5.968117
   3.64688      5.952061
   3.66721      5.928804
   3.68754      5.897747
   3.70787      5.858531
   3.72821      5.811121
   3.74854      5.755904
   3.76887      5.693911
   3.78921      5.627572
   3.80954      5.564675
   3.82987      5.548033
 
# Band-Index   30
   3.82987      5.548033
   3.80954      5.564675
   3.78921      5.627572
   3.76887      5.693911
   3.74854      5.755904
   3.72821      5.811121
   3.70787      5.858531
   3.68754      5.897747
   3.66721      5.928804
   3.64688      5.952061
   3.62654      5.968117
   3.60621      5.977757
   3.58588      5.981904
   3.56554      5.981604
   3.54521      5.978011
   3.52488      5.976561
   3.50455      5.998726
   3.48421      6.015055
   3.46388      6.025061
   3.44355      6.028431
   3.44355      6.028431
   3.42321      6.113156
   3.40288      6.283829
   3.38255      6.462631
   3.36222      6.645098
   3.34188      6.826267
   3.32155      7.000330
   3.30122      7.160445
   3.28088      7.299047
   3.26055      7.409373
   3.24022      7.487967
   3.21988      7.536424
   3.19955      7.560527
   3.17922      7.567590
   3.15889      7.564298
   3.13855      7.555870
   3.11822      7.546063
   3.09789      7.537446
   3.07755      7.531664
   3.05722      7.529638
   3.05722      7.529638
   3.00742      7.560149
   2.95761      7.631804
   2.90781      7.679673
   2.85800      7.594179
   2.80820      7.311708
   2.75839      6.898708
   2.70858      6.453278
   2.65878      6.096549
   2.60897      6.463891
   2.55917      6.849912
   2.50936      7.249145
   2.45956      7.655275
   2.40975      8.060483
   2.35995      8.267926
   2.31014      8.425121
   2.26034      8.889370
   2.21053      9.280151
   2.16073      9.543590
   2.11092      9.635551
   2.11092      9.635551
   2.05809      9.544219
   2.00527      9.264431
   1.95244      8.833700
   1.89962      8.321652
   1.84679      8.301888
   1.79396      7.887149
   1.74114      7.460785
   1.68831      7.039428
   1.63548      6.630680
   1.58266      6.240686
   1.52983      5.989095
   1.47700      6.081438
   1.42418      6.063065
   1.37135      6.386855
   1.31852      6.657802
   1.26570      6.821985
   1.21287      6.736618
   1.16004      6.643226
   1.10722      6.585658
   1.10722      6.585658
   1.08961      6.571556
   1.07200      6.558311
   1.05439      6.544712
   1.03678      6.529485
   1.01917      6.511333
   1.00157      6.488978
   0.98396      6.461168
   0.96635      6.426710
   0.94874      6.384507
   0.93113      6.333588
   0.91352      6.273195
   0.89591      6.202862
   0.87830      6.122491
   0.86069      6.032436
   0.84309      5.933569
   0.82548      5.827445
   0.80787      5.716929
   0.79026      5.609892
   0.77265      5.548033
   0.77265      5.548033
   0.73198      5.762250
   0.69132      6.004850
   0.65065      6.262176
   0.60999      6.529301
   0.56932      6.799704
   0.52866      7.049315
   0.48799      7.195409
   0.44732      7.295637
   0.40666      7.548270
   0.36599      7.820831
   0.32533      8.094742
   0.28466      8.366971
   0.24399      8.386206
   0.20333      8.652184
   0.16266      8.916914
   0.12200      9.170816
   0.08133      9.397898
   0.04067      9.577130
   0.00000      9.635551
 
# Band-Index   31
   0.00000      9.635551
   0.04067      9.594992
   0.08133      9.492721
   0.12200      9.309096
   0.16266      9.070179
   0.20333      8.839359
   0.24399      8.624902
   0.28466      8.431426
   0.32533      8.261801
   0.36599      8.117898
   0.40666      8.000956
   0.44732      7.808862
   0.48799      7.552478
   0.52866      7.350781
   0.56932      7.064204
   0.60999      6.762314
   0.65065      6.448129
   0.69132      6.125589
   0.73198      5.801300
   0.77265      5.548033
   0.77265      5.548033
   0.79026      5.609892
   0.80787      5.716929
   0.82548      5.827445
   0.84309      5.933569
   0.86069      6.032436
   0.87830      6.122491
   0.89591      6.202862
   0.91352      6.273195
   0.93113      6.333588
   0.94874      6.384507
   0.96635      6.426710
   0.98396      6.461168
   1.00157      6.488978
   1.01917      6.511333
   1.03678      6.529485
   1.05439      6.544712
   1.07200      6.574842
   1.08961      6.631809
   1.10722      6.684642
   1.10722      6.684642
   1.16004      6.809793
   1.21287      6.775701
   1.26570      6.868618
   1.31852      7.029758
   1.37135      7.198215
   1.42418      7.315055
   1.47700      7.261094
   1.52983      7.171574
   1.58266      7.266010
   1.63548      7.477848
   1.68831      7.738464
   1.74114      7.978968
   1.79396      8.149823
   1.84679      8.308405
   1.89962      8.710394
   1.95244      9.062238
   2.00527      9.368931
   2.05809      9.565957
   2.11092      9.635551
   2.11092      9.635551
   2.16073      9.576814
   2.21053      9.408135
   2.26034      9.148925
   2.31014      8.823440
   2.35995      8.454489
   2.40975      8.060483
   2.45956      7.655275
   2.50936      7.249145
   2.55917      6.849912
   2.60897      6.463891
   2.65878      6.096549
   2.70858      6.453278
   2.75839      6.898708
   2.80820      7.311708
   2.85800      7.594179
   2.90781      7.679673
   2.95761      7.631804
   3.00742      7.560149
   3.05722      7.529638
   3.05722      7.529638
   3.07755      7.535609
   3.09789      7.553023
   3.11822      7.580395
   3.13855      7.615306
   3.15889      7.654477
   3.17922      7.693889
   3.19955      7.728999
   3.21988      7.755142
   3.24022      7.768130
   3.26055      7.764992
   3.28088      7.744559
   3.30122      7.707632
   3.32155      7.656688
   3.34188      7.595383
   3.36222      7.528174
   3.38255      7.460238
   3.40288      7.397736
   3.42321      7.348141
   3.44355      7.319845
   3.44355      7.319845
   3.46388      7.313447
   3.48421      7.294624
   3.50455      7.264312
   3.52488      7.223618
   3.54521      7.173443
   3.56554      7.114307
   3.58588      7.046301
   3.60621      6.969156
   3.62654      6.882342
   3.64688      6.785210
   3.66721      6.677155
   3.68754      6.557808
   3.70787      6.427208
   3.72821      6.285966
   3.74854      6.135360
   3.76887      5.977478
   3.78921      5.815774
   3.80954      5.658538
   3.82987      5.548033
 
# Band-Index   32
   3.82987      5.548033
   3.80954      5.658538
   3.78921      5.815774
   3.76887      5.977478
   3.74854      6.135360
   3.72821      6.285966
   3.70787      6.427208
   3.68754      6.557808
   3.66721      6.677155
   3.64688      6.785210
   3.62654      6.882342
   3.60621      6.969156
   3.58588      7.046301
   3.56554      7.114307
   3.54521      7.173443
   3.52488      7.223618
   3.50455      7.264312
   3.48421      7.294624
   3.46388      7.313447
   3.44355      7.319845
   3.44355      7.319845
   3.42321      7.348141
   3.40288      7.397736
   3.38255      7.460238
   3.36222      7.528174
   3.34188      7.595383
   3.32155      7.656688
   3.30122      7.707632
   3.28088      7.744559
   3.26055      7.764992
   3.24022      7.768130
   3.21988      7.755142
   3.19955      7.728999
   3.17922      7.693889
   3.15889      7.654477
   3.13855      7.615306
   3.11822      7.580395
   3.09789      7.553023
   3.07755      7.535609
   3.05722      7.529638
   3.05722      7.529638
   3.00742      7.560149
   2.95761      7.631804
   2.90781      7.679673
   2.85800      7.594179
   2.80820      7.311708
   2.75839      6.981131
   2.70858      6.615017
   2.65878      6.211212
   2.60897      6.463891
   2.55917      6.849912
   2.50936      7.249145
   2.45956      7.655275
   2.40975      8.060483
   2.35995      8.454489
   2.31014      8.823440
   2.26034      9.148925
   2.21053      9.408135
   2.16073      9.576814
   2.11092      9.635551
   2.11092      9.635551
   2.05809      9.569427
   2.00527      9.392640
   1.95244      9.072989
   1.89962      8.740832
   1.84679      8.525349
   1.79396      8.313988
   1.74114      8.021243
   1.68831      7.738464
   1.63548      7.477848
   1.58266      7.266010
   1.52983      7.171574
   1.47700      7.261094
   1.42418      7.315055
   1.37135      7.198215
   1.31852      7.029758
   1.26570      6.868618
   1.21287      6.865043
   1.16004      7.012761
   1.10722      7.227204
   1.10722      7.227204
   1.08961      7.283027
   1.07200      7.324300
   1.05439      7.345498
   1.03678      7.341083
   1.01917      7.307304
   1.00157      7.243910
   0.98396      7.154231
   0.96635      7.043588
   0.94874      6.917501
   0.93113      6.780688
   0.91352      6.636857
   0.89591      6.488860
   0.87830      6.338934
   0.86069      6.188928
   0.84309      6.040571
   0.82548      5.895773
   0.80787      5.757480
   0.79026      5.632904
   0.77265      5.548033
   0.77265      5.548033
   0.73198      5.801300
   0.69132      6.125589
   0.65065      6.448129
   0.60999      6.762314
   0.56932      7.064204
   0.52866      7.350781
   0.48799      7.619990
   0.44732      7.870972
   0.40666      8.104162
   0.36599      8.321081
   0.32533      8.523843
   0.28466      8.531582
   0.24399      8.633371
   0.20333      8.888257
   0.16266      9.123838
   0.12200      9.329681
   0.08133      9.499023
   0.04067      9.594992
   0.00000      9.635551
 
# Band-Index   33
   0.00000      9.635551
   0.04067      9.598649
   0.08133      9.499023
   0.12200      9.371754
   0.16266      9.225176
   0.20333      9.065278
   0.24399      8.894822
   0.28466      8.714555
   0.32533      8.523843
   0.36599      8.321081
   0.40666      8.104162
   0.44732      7.870972
   0.48799      7.619990
   0.52866      7.498792
   0.56932      7.726626
   0.60999      7.832977
   0.65065      7.880500
   0.69132      7.953164
   0.73198      8.049846
   0.77265      8.169343
   0.77265      8.169343
   0.79026      8.141721
   0.80787      8.123837
   0.82548      8.115221
   0.84309      8.115347
   0.86069      8.123648
   0.87830      8.139552
   0.89591      8.162491
   0.91352      8.191934
   0.93113      8.227376
   0.94874      8.268358
   0.96635      8.314448
   0.98396      8.365268
   1.00157      8.420477
   1.01917      8.479765
   1.03678      8.542860
   1.05439      8.609505
   1.07200      8.679481
   1.08961      8.752583
   1.10722      8.721828
   1.10722      8.721828
   1.16004      8.545804
   1.21287      8.486070
   1.26570      8.510322
   1.31852      8.577106
   1.37135      8.694272
   1.42418      8.318375
   1.47700      8.170898
   1.52983      8.302416
   1.58266      8.103702
   1.63548      7.936528
   1.68831      7.898170
   1.74114      8.021243
   1.79396      8.313988
   1.84679      8.608291
   1.89962      8.895587
   1.95244      9.164640
   2.00527      9.398494
   2.05809      9.569427
   2.11092      9.635551
   2.11092      9.635551
   2.16073      9.576814
   2.21053      9.408135
   2.26034      9.148925
   2.31014      8.823440
   2.35995      8.454489
   2.40975      8.540525
   2.45956      8.722596
   2.50936      8.709492
   2.55917      8.736829
   2.60897      8.655140
   2.65878      8.566243
   2.70858      8.500808
   2.75839      8.490977
   2.80820      8.581048
   2.85800      8.802819
   2.90781      9.126453
   2.95761      9.480937
   3.00742      9.780251
   3.05722      9.906037
   3.05722      9.906037
   3.07755      9.888652
   3.09789      9.837370
   3.11822      9.754868
   3.13855      9.645791
   3.15889      9.516845
   3.17922      9.376681
   3.19955      9.235533
   3.21988      9.104619
   3.24022      8.994949
   3.26055      8.915068
   3.28088      8.868439
   3.30122      8.852620
   3.32155      8.861006
   3.34188      8.885205
   3.36222      8.826325
   3.38255      8.675087
   3.40288      8.523409
   3.42321      8.373969
   3.44355      8.230103
   3.44355      8.230103
   3.46388      8.238024
   3.48421      8.261216
   3.50455      8.298155
   3.52488      8.346742
   3.54521      8.404622
   3.56554      8.469267
   3.58588      8.537730
   3.60621      8.586403
   3.62654      8.503208
   3.64688      8.423013
   3.66721      8.348871
   3.68754      8.283188
   3.70787      8.227844
   3.72821      8.184268
   3.74854      8.153502
   3.76887      8.136254
   3.78921      8.132981
   3.80954      8.143957
   3.82987      8.169343
 
# Band-Index   34
   3.82987      8.169343
   3.80954      8.143957
   3.78921      8.132981
   3.76887      8.136254
   3.74854      8.153502
   3.72821      8.184268
   3.70787      8.227844
   3.68754      8.283188
   3.66721      8.348871
   3.64688      8.423013
   3.62654      8.503208
   3.60621      8.586403
   3.58588      8.537730
   3.56554      8.469267
   3.54521      8.404622
   3.52488      8.346742
   3.50455      8.298155
   3.48421      8.261216
   3.46388      8.238024
   3.44355      8.230103
   3.44355      8.230103
   3.42321      8.373969
   3.40288      8.523409
   3.38255      8.675087
   3.36222      8.826325
   3.34188      8.885205
   3.32155      8.861006
   3.30122      8.852620
   3.28088      8.868439
   3.26055      8.915068
   3.24022      8.994949
   3.21988      9.104619
   3.19955      9.235533
   3.17922      9.376681
   3.15889      9.516845
   3.13855      9.645791
   3.11822      9.754868
   3.09789      9.837370
   3.07755      9.888652
   3.05722      9.906037
   3.05722      9.906037
   3.00742      9.851211
   2.95761      9.683947
   2.90781      9.452899
   2.85800      9.300913
   2.80820      9.323581
   2.75839      9.462383
   2.70858      9.195408
   2.65878      8.981688
   2.60897      8.827703
   2.55917      8.736829
   2.50936      8.709492
   2.45956      8.742942
   2.40975      8.831772
   2.35995      8.968572
   2.31014      9.144044
   2.26034      9.345744
   2.21053      9.553519
   2.16073      9.728317
   2.11092      9.801995
   2.11092      9.801995
   2.05809      9.676545
   2.00527      9.398494
   1.95244      9.164640
   1.89962      8.895587
   1.84679      8.608291
   1.79396      8.770149
   1.74114      9.057841
   1.68831      9.099507
   1.63548      8.813630
   1.58266      8.540156
   1.52983      8.302416
   1.47700      8.170898
   1.42418      8.318375
   1.37135      8.723952
   1.31852      9.153786
   1.26570      9.198612
   1.21287      9.337784
   1.16004      9.072745
   1.10722      8.828624
   1.10722      8.828624
   1.08961      8.805991
   1.07200      8.901166
   1.05439      8.826820
   1.03678      8.775352
   1.01917      8.751884
   1.00157      8.757734
   0.98396      8.790386
   0.96635      8.845154
   0.94874      8.796931
   0.93113      8.688321
   0.91352      8.585285
   0.89591      8.490681
   0.87830      8.406584
   0.86069      8.334397
   0.84309      8.274956
   0.82548      8.228676
   0.80787      8.195673
   0.79026      8.175918
   0.77265      8.169343
   0.77265      8.169343
   0.73198      8.203631
   0.69132      8.299118
   0.65065      8.438498
   0.60999      8.110322
   0.56932      7.811610
   0.52866      7.817235
   0.48799      7.850480
   0.44732      7.911713
   0.40666      8.114202
   0.36599      8.435458
   0.32533      8.764134
   0.28466      8.714555
   0.24399      8.894822
   0.20333      9.065278
   0.16266      9.225176
   0.12200      9.371754
   0.08133      9.539471
   0.04067      9.725351
   0.00000      9.801995
 
# Band-Index   35
   0.00000      9.801995
   0.04067      9.778470
   0.08133      9.710484
   0.12200      9.605820
   0.16266      9.476922
   0.20333      9.339489
   0.24399      9.211659
   0.28466      9.094848
   0.32533      8.773678
   0.36599      8.905817
   0.40666      8.998456
   0.44732      9.143053
   0.48799      9.142722
   0.52866      8.961422
   0.56932      8.780418
   0.60999      8.603478
   0.65065      8.438498
   0.69132      8.299118
   0.73198      8.203631
   0.77265      8.169343
   0.77265      8.169343
   0.79026      8.175918
   0.80787      8.195673
   0.82548      8.228676
   0.84309      8.274956
   0.86069      8.334397
   0.87830      8.406584
   0.89591      8.490681
   0.91352      8.585285
   0.93113      8.688321
   0.94874      8.796931
   0.96635      8.907396
   0.98396      9.015178
   1.00157      9.115254
   1.01917      9.203058
   1.03678      9.121021
   1.05439      9.006915
   1.07200      8.901433
   1.08961      8.991094
   1.10722      9.088901
   1.10722      9.088901
   1.16004      9.362118
   1.21287      9.400062
   1.26570      9.434876
   1.31852      9.153786
   1.37135      8.723952
   1.42418      8.866447
   1.47700      8.712163
   1.52983      8.378781
   1.58266      8.540156
   1.63548      8.813630
   1.68831      9.099507
   1.74114      9.362605
   1.79396      9.345791
   1.84679      9.379930
   1.89962      9.454938
   1.95244      9.557914
   2.00527      9.670435
   2.05809      9.764077
   2.11092      9.801995
   2.11092      9.801995
   2.16073      9.728317
   2.21053      9.553519
   2.26034      9.345744
   2.31014      9.144044
   2.35995      8.968572
   2.40975      8.831772
   2.45956      8.742942
   2.50936      8.778604
   2.55917      8.738767
   2.60897      8.827703
   2.65878      8.981688
   2.70858      9.195408
   2.75839      9.462383
   2.80820      9.323581
   2.85800      9.300913
   2.90781      9.452899
   2.95761      9.683947
   3.00742      9.851211
   3.05722      9.906037
   3.05722      9.906037
   3.07755      9.898825
   3.09789      9.877772
   3.11822      9.844543
   3.13855      9.801669
   3.15889      9.752157
   3.17922      9.698903
   3.19955      9.643846
   3.21988      9.586796
   3.24022      9.524282
   3.26055      9.449813
   3.28088      9.357142
   3.30122      9.244540
   3.32155      9.115203
   3.34188      8.974238
   3.36222      8.916256
   3.38255      8.944800
   3.40288      8.961389
   3.42321      8.958258
   3.44355      8.932025
   3.44355      8.932025
   3.46388      8.929126
   3.48421      8.919103
   3.50455      8.898503
   3.52488      8.863416
   3.54521      8.811939
   3.56554      8.745637
   3.58588      8.668765
   3.60621      8.605985
   3.62654      8.667444
   3.64688      8.710288
   3.66721      8.716349
   3.68754      8.673737
   3.70787      8.594901
   3.72821      8.502740
   3.74854      8.412531
   3.76887      8.331690
   3.78921      8.263478
   3.80954      8.209211
   3.82987      8.169343
 
# Band-Index   36
   3.82987      8.169343
   3.80954      8.209211
   3.78921      8.263478
   3.76887      8.331690
   3.74854      8.412531
   3.72821      8.502740
   3.70787      8.594901
   3.68754      8.673737
   3.66721      8.716349
   3.64688      8.710288
   3.62654      8.667444
   3.60621      8.605985
   3.58588      8.668765
   3.56554      8.745637
   3.54521      8.811939
   3.52488      8.863416
   3.50455      8.898503
   3.48421      8.919103
   3.46388      8.929126
   3.44355      8.932025
   3.44355      8.932025
   3.42321      8.958258
   3.40288      8.961389
   3.38255      8.944800
   3.36222      8.916256
   3.34188      8.974238
   3.32155      9.115203
   3.30122      9.244540
   3.28088      9.357142
   3.26055      9.449813
   3.24022      9.524282
   3.21988      9.586796
   3.19955      9.643846
   3.17922      9.698903
   3.15889      9.752157
   3.13855      9.801669
   3.11822      9.844543
   3.09789      9.877772
   3.07755      9.898825
   3.05722      9.906037
   3.05722      9.906037
   3.00742      9.851211
   2.95761      9.683947
   2.90781      9.452899
   2.85800      9.300913
   2.80820      9.323581
   2.75839      9.462383
   2.70858      9.625918
   2.65878      9.767019
   2.60897      9.876515
   2.55917      9.961486
   2.50936     10.030854
   2.45956     10.090952
   2.40975     10.145541
   2.35995     10.196718
   2.31014     10.245942
   2.26034     10.295037
   2.21053     10.346350
   2.16073     10.396355
   2.11092     10.420451
   2.11092     10.420451
   2.05809     10.366242
   2.00527     10.270104
   1.95244     10.194303
   1.89962     10.111590
   1.84679      9.904958
   1.79396      9.657734
   1.74114      9.384799
   1.68831      9.268509
   1.63548      9.401741
   1.58266      9.470052
   1.52983      9.276021
   1.47700      9.069015
   1.42418      9.032388
   1.37135      9.273481
   1.31852      9.213751
   1.26570      9.434876
   1.21287      9.510570
   1.16004      9.499936
   1.10722      9.440909
   1.10722      9.440909
   1.08961      9.413014
   1.07200      9.378177
   1.05439      9.333485
   1.03678      9.275832
   1.01917      9.203058
   1.00157      9.115254
   0.98396      9.015178
   0.96635      8.907396
   0.94874      8.917019
   0.93113      8.875105
   0.91352      8.758479
   0.89591      8.650432
   0.87830      8.551503
   0.86069      8.462157
   0.84309      8.382817
   0.82548      8.313767
   0.80787      8.255178
   0.79026      8.207076
   0.77265      8.169343
   0.77265      8.169343
   0.73198      8.310430
   0.69132      8.471878
   0.65065      8.567740
   0.60999      8.603478
   0.56932      8.780418
   0.52866      8.961422
   0.48799      9.142722
   0.44732      9.322342
   0.40666      9.498315
   0.36599      9.252053
   0.32533      9.099784
   0.28466      9.116436
   0.24399      9.421137
   0.20333      9.732985
   0.16266     10.013532
   0.12200     10.236216
   0.08133     10.353065
   0.04067     10.396537
   0.00000     10.420451
 
# Band-Index   37
   0.00000     10.420451
   0.04067     10.396537
   0.08133     10.353065
   0.12200     10.312966
   0.16266     10.264030
   0.20333     10.192526
   0.24399     10.094090
   0.28466      9.970652
   0.32533      9.826825
   0.36599      9.667783
   0.40666      9.498315
   0.44732      9.322342
   0.48799      9.353200
   0.52866      9.297394
   0.56932      9.066381
   0.60999      8.851032
   0.65065      8.652478
   0.69132      9.050285
   0.73198      9.520555
   0.77265      9.935987
   0.77265      9.935987
   0.79026      9.839113
   0.80787      9.735735
   0.82548      9.628401
   0.84309      9.519137
   0.86069      9.409646
   0.87830      9.301490
   0.89591      9.196226
   0.91352      9.095584
   0.93113      9.001637
   0.94874      8.999748
   0.96635      9.131849
   0.98396      9.270848
   1.00157      9.368549
   1.01917      9.242164
   1.03678      9.275832
   1.05439      9.333485
   1.07200      9.378177
   1.08961      9.413014
   1.10722      9.440909
   1.10722      9.440909
   1.16004      9.499936
   1.21287      9.519819
   1.26570      9.516432
   1.31852      9.429641
   1.37135      9.409129
   1.42418      9.715206
   1.47700      9.708196
   1.52983      9.583089
   1.58266      9.493502
   1.63548      9.578589
   1.68831      9.438372
   1.74114      9.384799
   1.79396      9.657734
   1.84679      9.904958
   1.89962     10.111590
   1.95244     10.264609
   2.00527     10.359595
   2.05809     10.406381
   2.11092     10.420451
   2.11092     10.420451
   2.16073     10.396355
   2.21053     10.346350
   2.26034     10.295037
   2.31014     10.245942
   2.35995     10.196718
   2.40975     10.145541
   2.45956     10.090952
   2.50936     10.030854
   2.55917      9.961486
   2.60897      9.876515
   2.65878      9.767019
   2.70858      9.625918
   2.75839      9.463261
   2.80820      9.778273
   2.85800     10.132428
   2.90781     10.515768
   2.95761     10.911519
   3.00742     11.275362
   3.05722     11.456150
   3.05722     11.456150
   3.07755     11.408829
   3.09789     11.292618
   3.11822     11.147431
   3.13855     10.997143
   3.15889     10.852487
   3.17922     10.717235
   3.19955     10.591807
   3.21988     10.475275
   3.24022     10.366442
   3.26055     10.264342
   3.28088     10.168474
   3.30122     10.078914
   3.32155      9.996467
   3.34188      9.922939
   3.36222      9.861446
   3.38255      9.816720
   3.40288      9.794651
   3.42321      9.800224
   3.44355      9.834569
   3.44355      9.834569
   3.46388      9.822012
   3.48421      9.791807
   3.50455      9.759863
   3.52488      9.740752
   3.54521      9.743070
   3.56554      9.768831
   3.58588      9.815280
   3.60621      9.787890
   3.62654      9.606532
   3.64688      9.461832
   3.66721      9.373038
   3.68754      9.352850
   3.70787      9.389181
   3.72821      9.458967
   3.74854      9.546156
   3.76887      9.641984
   3.78921      9.741312
   3.80954      9.840436
   3.82987      9.935987
 
# Band-Index   38
   3.82987      9.935987
   3.80954      9.840436
   3.78921      9.741312
   3.76887      9.641984
   3.74854      9.546156
   3.72821      9.458967
   3.70787      9.389181
   3.68754      9.352850
   3.66721      9.373038
   3.64688      9.461832
   3.62654      9.606532
   3.60621      9.787890
   3.58588      9.815280
   3.56554      9.768831
   3.54521      9.743070
   3.52488      9.740752
   3.50455      9.759863
   3.48421      9.791807
   3.46388      9.822012
   3.44355      9.834569
   3.44355      9.834569
   3.42321      9.800224
   3.40288      9.794651
   3.38255      9.816720
   3.36222      9.861446
   3.34188      9.922939
   3.32155      9.996467
   3.30122     10.078914
   3.28088     10.168474
   3.26055     10.264342
   3.24022     10.366442
   3.21988     10.475275
   3.19955     10.591807
   3.17922     10.717235
   3.15889     10.852487
   3.13855     10.997143
   3.11822     11.147431
   3.09789     11.292618
   3.07755     11.408829
   3.05722     11.456150
   3.05722     11.456150
   3.00742     11.275362
   2.95761     10.911519
   2.90781     10.515768
   2.85800     10.132428
   2.80820      9.778273
   2.75839      9.463261
   2.70858      9.625918
   2.65878      9.767019
   2.60897      9.876515
   2.55917      9.961486
   2.50936     10.030854
   2.45956     10.090952
   2.40975     10.145541
   2.35995     10.196718
   2.31014     10.245942
   2.26034     10.295037
   2.21053     10.346350
   2.16073     10.396355
   2.11092     10.420451
   2.11092     10.420451
   2.05809     10.406381
   2.00527     10.359595
   1.95244     10.264609
   1.89962     10.133151
   1.84679     10.070766
   1.79396      9.996539
   1.74114      9.903253
   1.68831      9.785820
   1.63548      9.641376
   1.58266      9.785437
   1.52983     10.057227
   1.47700     10.093875
   1.42418      9.916626
   1.37135     10.222195
   1.31852      9.916247
   1.26570      9.620143
   1.21287      9.519819
   1.16004      9.758785
   1.10722     10.200479
   1.10722     10.200479
   1.08961     10.219752
   1.07200     10.050535
   1.05439      9.885034
   1.03678      9.723793
   1.01917      9.567341
   1.00157      9.416189
   0.98396      9.498075
   0.96635      9.628199
   0.94874      9.755712
   0.93113      9.876493
   0.91352      9.941947
   0.89591      9.937257
   0.87830      9.935065
   0.86069      9.934371
   0.84309      9.934489
   0.82548      9.934957
   0.80787      9.935474
   0.79026      9.935851
   0.77265      9.935987
   0.77265      9.935987
   0.73198      9.956502
   0.69132     10.017822
   0.65065     10.118873
   0.60999     10.170423
   0.56932      9.904462
   0.52866      9.616440
   0.48799      9.542904
   0.44732      9.783090
   0.40666      9.509769
   0.36599      9.667783
   0.32533      9.826825
   0.28466      9.970652
   0.24399     10.094090
   0.20333     10.192526
   0.16266     10.264030
   0.12200     10.312966
   0.08133     10.371568
   0.04067     10.417442
   0.00000     10.420451
 
# Band-Index   39
   0.00000     11.241969
   0.04067     11.239515
   0.08133     11.235610
   0.12200     11.237750
   0.16266     11.252526
   0.20333     11.283428
   0.24399     11.247708
   0.28466     10.944024
   0.32533     10.645528
   0.36599     10.354498
   0.40666     10.072734
   0.44732      9.801755
   0.48799     10.051460
   0.52866     10.311460
   0.56932     10.425656
   0.60999     10.256728
   0.65065     10.118873
   0.69132     10.017822
   0.73198      9.956502
   0.77265      9.935987
   0.77265      9.935987
   0.79026      9.935851
   0.80787      9.935474
   0.82548      9.934957
   0.84309      9.934489
   0.86069      9.934371
   0.87830      9.935065
   0.89591      9.937257
   0.91352      9.941947
   0.93113      9.950569
   0.94874      9.965136
   0.96635      9.988368
   0.98396     10.023730
   1.00157     10.075064
   1.01917     10.145631
   1.03678     10.236633
   1.05439     10.346137
   1.07200     10.469165
   1.08961     10.356828
   1.10722     10.392074
   1.10722     10.392074
   1.16004     10.919282
   1.21287     11.096518
   1.26570     10.985325
   1.31852     10.661703
   1.37135     10.246741
   1.42418     10.533370
   1.47700     10.388321
   1.52983     10.523087
   1.58266     10.979637
   1.63548     11.428382
   1.68831     11.149270
   1.74114     10.902963
   1.79396     10.796321
   1.84679     10.801015
   1.89962     10.877114
   1.95244     10.990777
   2.00527     11.111311
   2.05809     11.205685
   2.11092     11.241969
   2.11092     11.241969
   2.16073     11.193768
   2.21053     11.065217
   2.26034     10.892121
   2.31014     10.713108
   2.35995     10.568012
   2.40975     10.507397
   2.45956     10.593097
   2.50936     10.855391
   2.55917     11.256594
   2.60897     11.570036
   2.65878     11.524361
   2.70858     11.273449
   2.75839     11.035724
   2.80820     10.891279
   2.85800     10.834712
   2.90781     10.869964
   2.95761     11.021840
   3.00742     11.284074
   3.05722     11.456150
   3.05722     11.456150
   3.07755     11.434010
   3.09789     11.363842
   3.11822     11.251059
   3.13855     11.112275
   3.15889     10.962099
   3.17922     10.810610
   3.19955     10.665811
   3.21988     10.535974
   3.24022     10.431036
   3.26055     10.362086
   3.28088     10.337772
   3.30122     10.360058
   3.32155     10.424249
   3.34188     10.522629
   3.36222     10.647306
   3.38255     10.732768
   3.40288     10.696848
   3.42321     10.664967
   3.44355     10.637312
   3.44355     10.637312
   3.46388     10.662182
   3.48421     10.730401
   3.50455     10.828764
   3.52488     10.675622
   3.54521     10.442909
   3.56554     10.213150
   3.58588      9.992796
   3.60621      9.877336
   3.62654      9.949070
   3.64688     10.024074
   3.66721     10.095330
   3.68754     10.155187
   3.70787     10.195992
   3.72821     10.211686
   3.74854     10.199651
   3.76887     10.161349
   3.78921     10.101122
   3.80954     10.024317
   3.82987      9.935987
 
# Band-Index   40
   3.82987      9.935987
   3.80954     10.024317
   3.78921     10.101122
   3.76887     10.161349
   3.74854     10.199651
   3.72821     10.211686
   3.70787     10.195992
   3.68754     10.155187
   3.66721     10.095330
   3.64688     10.024074
   3.62654      9.949070
   3.60621      9.877336
   3.58588      9.992796
   3.56554     10.213150
   3.54521     10.442909
   3.52488     10.675622
   3.50455     10.828764
   3.48421     10.730401
   3.46388     10.662182
   3.44355     10.637312
   3.44355     10.637312
   3.42321     10.664967
   3.40288     10.696848
   3.38255     10.732768
   3.36222     10.647306
   3.34188     10.522629
   3.32155     10.424249
   3.30122     10.360058
   3.28088     10.337772
   3.26055     10.362086
   3.24022     10.431036
   3.21988     10.535974
   3.19955     10.665811
   3.17922     10.810610
   3.15889     10.962099
   3.13855     11.112275
   3.11822     11.251059
   3.09789     11.363842
   3.07755     11.434010
   3.05722     11.456150
   3.05722     11.456150
   3.00742     11.284074
   2.95761     11.021840
   2.90781     10.869964
   2.85800     10.834712
   2.80820     10.891279
   2.75839     11.035724
   2.70858     11.273449
   2.65878     11.524361
   2.60897     11.570036
   2.55917     11.628529
   2.50936     11.700613
   2.45956     11.787156
   2.40975     11.889349
   2.35995     12.008960
   2.31014     12.148612
   2.26034     11.961364
   2.21053     11.606615
   2.16073     11.344573
   2.11092     11.241969
   2.11092     11.241969
   2.05809     11.310301
   2.00527     11.495730
   1.95244     11.763060
   1.89962     11.921542
   1.84679     11.791176
   1.79396     11.691487
   1.74114     11.619225
   1.68831     11.568646
   1.63548     11.520185
   1.58266     11.434342
   1.52983     11.147270
   1.47700     10.844088
   1.42418     10.768729
   1.37135     10.983502
   1.31852     10.891075
   1.26570     10.985325
   1.21287     11.106347
   1.16004     11.010023
   1.10722     10.725612
   1.10722     10.725612
   1.08961     10.598544
   1.07200     10.469165
   1.05439     10.346137
   1.03678     10.236633
   1.01917     10.145631
   1.00157     10.075064
   0.98396     10.023730
   0.96635      9.988368
   0.94874      9.965136
   0.93113      9.950569
   0.91352      9.985268
   0.89591     10.075649
   0.87830     10.140873
   0.86069     10.175551
   0.84309     10.177706
   0.82548     10.149509
   0.80787     10.095997
   0.79026     10.023047
   0.77265      9.935987
   0.77265      9.935987
   0.73198     10.241066
   0.69132     10.383401
   0.65065     10.349650
   0.60999     10.256728
   0.56932     10.425656
   0.52866     10.617095
   0.48799     10.820886
   0.44732     11.027278
   0.40666     11.228628
   0.36599     11.420063
   0.32533     11.478010
   0.28466     11.396479
   0.24399     11.331467
   0.20333     11.538515
   0.16266     11.428805
   0.12200     11.345783
   0.08133     11.287707
   0.04067     11.253344
   0.00000     11.241969
 
# Band-Index   41
   0.00000     11.241969
   0.04067     11.339137
   0.08133     11.586644
   0.12200     11.919900
   0.16266     11.857744
   0.20333     11.553620
   0.24399     11.677187
   0.28466     11.763900
   0.32533     11.598970
   0.36599     11.420063
   0.40666     11.228628
   0.44732     11.027278
   0.48799     10.820886
   0.52866     10.617095
   0.56932     10.568003
   0.60999     10.836802
   0.65065     11.140004
   0.69132     11.480148
   0.73198     11.834921
   0.77265     12.181423
   0.77265     12.181423
   0.79026     12.085029
   0.80787     11.977568
   0.82548     11.874461
   0.84309     11.786334
   0.86069     11.719400
   0.87830     11.674087
   0.89591     11.643518
   0.91352     11.613908
   0.93113     11.568594
   0.94874     11.495947
   0.96635     11.394930
   0.98396     11.271678
   1.00157     11.133283
   1.01917     10.985173
   1.03678     10.831111
   1.05439     10.673747
   1.07200     10.515091
   1.08961     10.598544
   1.10722     10.725612
   1.10722     10.725612
   1.16004     11.010023
   1.21287     11.106347
   1.26570     11.029152
   1.31852     10.891075
   1.37135     10.983502
   1.42418     11.179128
   1.47700     11.364527
   1.52983     11.460113
   1.58266     11.502696
   1.63548     11.532942
   1.68831     11.568646
   1.74114     11.619225
   1.79396     11.691487
   1.84679     11.791176
   1.89962     11.921542
   1.95244     12.078730
   2.00527     11.719121
   2.05809     11.383912
   2.11092     11.241969
   2.11092     11.241969
   2.16073     11.344573
   2.21053     11.606615
   2.26034     11.961364
   2.31014     12.148612
   2.35995     12.008960
   2.40975     11.889349
   2.45956     11.787156
   2.50936     11.700613
   2.55917     11.628529
   2.60897     11.570036
   2.65878     11.524361
   2.70858     11.273449
   2.75839     11.035724
   2.80820     10.891279
   2.85800     10.834712
   2.90781     10.869964
   2.95761     11.021840
   3.00742     11.284074
   3.05722     11.456150
   3.05722     11.456150
   3.07755     11.446455
   3.09789     11.423781
   3.11822     11.393093
   3.13855     11.349956
   3.15889     11.300201
   3.17922     11.246170
   3.19955     11.189742
   3.21988     11.132363
   3.24022     11.075147
   3.26055     11.018948
   3.28088     10.964436
   3.30122     10.912139
   3.32155     10.862486
   3.34188     10.815845
   3.36222     10.772516
   3.38255     10.790933
   3.40288     10.945997
   3.42321     11.103004
   3.44355     11.248262
   3.44355     11.248262
   3.46388     11.214047
   3.48421     11.094438
   3.50455     10.900723
   3.52488     10.945289
   3.54521     11.071211
   3.56554     11.199850
   3.58588     11.325074
   3.60621     11.439959
   3.62654     11.536125
   3.64688     11.605648
   3.66721     11.647450
   3.68754     11.672197
   3.70787     11.696981
   3.72821     11.736311
   3.74854     11.797622
   3.76887     11.880941
   3.78921     11.980449
   3.80954     12.085739
   3.82987     12.181423
 
# Band-Index   42
   3.82987     12.181423
   3.80954     12.085739
   3.78921     11.980449
   3.76887     11.880941
   3.74854     11.797622
   3.72821     11.736311
   3.70787     11.696981
   3.68754     11.672197
   3.66721     11.647450
   3.64688     11.605648
   3.62654     11.536125
   3.60621     11.439959
   3.58588     11.325074
   3.56554     11.199850
   3.54521     11.071211
   3.52488     10.945289
   3.50455     10.900723
   3.48421     11.094438
   3.46388     11.214047
   3.44355     11.248262
   3.44355     11.248262
   3.42321     11.103004
   3.40288     10.945997
   3.38255     10.790933
   3.36222     10.772516
   3.34188     10.815845
   3.32155     10.862486
   3.30122     10.912139
   3.28088     10.964436
   3.26055     11.018948
   3.24022     11.075147
   3.21988     11.132363
   3.19955     11.189742
   3.17922     11.246170
   3.15889     11.300201
   3.13855     11.349956
   3.11822     11.393093
   3.09789     11.423781
   3.07755     11.446455
   3.05722     11.456150
   3.05722     11.456150
   3.00742     11.454878
   2.95761     11.451832
   2.90781     11.449031
   2.85800     11.449089
   2.80820     11.454615
   2.75839     11.467877
   2.70858     11.490662
   2.65878     11.592877
   2.60897     11.733725
   2.55917     11.628529
   2.50936     11.700613
   2.45956     11.787156
   2.40975     11.889349
   2.35995     12.008960
   2.31014     12.148612
   2.26034     12.311561
   2.21053     12.402137
   2.16073     12.513871
   2.11092     12.643922
   2.11092     12.643922
   2.05809     12.454054
   2.00527     12.252292
   1.95244     12.078730
   1.89962     12.086621
   1.84679     12.369053
   1.79396     12.255275
   1.74114     12.096481
   1.68831     11.816568
   1.63548     11.532942
   1.58266     11.502696
   1.52983     11.460113
   1.47700     11.364527
   1.42418     11.179128
   1.37135     11.180052
   1.31852     11.448678
   1.26570     11.392830
   1.21287     11.424345
   1.16004     11.012766
   1.10722     11.039229
   1.10722     11.039229
   1.08961     11.075731
   1.07200     11.123193
   1.05439     11.179904
   1.03678     11.244409
   1.01917     11.315494
   1.00157     11.392145
   0.98396     11.473478
   0.96635     11.522951
   0.94874     11.575245
   0.93113     11.634853
   0.91352     11.700961
   0.89591     11.772442
   0.87830     11.847718
   0.86069     11.924607
   0.84309     12.000042
   0.82548     12.069739
   0.80787     12.127872
   0.79026     12.167319
   0.77265     12.181423
   0.77265     12.181423
   0.73198     12.192688
   0.69132     12.226406
   0.65065     12.282171
   0.60999     12.358657
   0.56932     12.321175
   0.52866     12.134107
   0.48799     11.967723
   0.44732     11.820023
   0.40666     11.689626
   0.36599     11.575742
   0.32533     11.598970
   0.28466     11.763900
   0.24399     11.913700
   0.20333     12.047882
   0.16266     12.169200
   0.12200     12.154537
   0.08133     12.385434
   0.04067     12.499655
   0.00000     12.643922
 
# Band-Index   43
   0.00000     12.643922
   0.04067     12.551515
   0.08133     12.412338
   0.12200     12.286505
   0.16266     12.169200
   0.20333     12.047882
   0.24399     11.913700
   0.28466     11.847517
   0.32533     12.052422
   0.36599     12.294581
   0.40666     12.575765
   0.44732     12.725563
   0.48799     12.652385
   0.52866     12.555066
   0.56932     12.452298
   0.60999     12.358657
   0.65065     12.282171
   0.69132     12.226406
   0.73198     12.192688
   0.77265     12.181423
   0.77265     12.181423
   0.79026     12.167319
   0.80787     12.127872
   0.82548     12.069739
   0.84309     12.000042
   0.86069     11.924607
   0.87830     11.847718
   0.89591     11.772442
   0.91352     11.700961
   0.93113     11.634853
   0.94874     11.575245
   0.96635     11.522951
   0.98396     11.478553
   1.00157     11.442480
   1.01917     11.415116
   1.03678     11.396908
   1.05439     11.388532
   1.07200     11.391122
   1.08961     11.406503
   1.10722     11.437204
   1.10722     11.437204
   1.16004     11.608360
   1.21287     11.499896
   1.26570     11.392830
   1.31852     11.448678
   1.37135     11.532525
   1.42418     11.635791
   1.47700     11.813013
   1.52983     12.119441
   1.58266     11.962312
   1.63548     11.695752
   1.68831     11.922525
   1.74114     12.108932
   1.79396     12.269711
   1.84679     12.372300
   1.89962     12.415669
   1.95244     12.141383
   2.00527     12.252292
   2.05809     12.454054
   2.11092     12.643922
   2.11092     12.643922
   2.16073     12.513871
   2.21053     12.402138
   2.26034     12.311561
   2.31014     12.324396
   2.35995     12.313898
   2.40975     12.303142
   2.45956     12.281989
   2.50936     12.238643
   2.55917     12.145819
   2.60897     11.929403
   2.65878     11.592877
   2.70858     11.490662
   2.75839     11.467877
   2.80820     11.454615
   2.85800     11.449089
   2.90781     11.449031
   2.95761     11.451832
   3.00742     11.454878
   3.05722     11.456150
   3.05722     11.456150
   3.07755     11.448633
   3.09789     11.426902
   3.11822     11.397568
   3.13855     11.373455
   3.15889     11.354125
   3.17922     11.340612
   3.19955     11.333073
   3.21988     11.331264
   3.24022     11.334769
   3.26055     11.343182
   3.28088     11.356154
   3.30122     11.373453
   3.32155     11.395004
   3.34188     11.420975
   3.36222     11.451924
   3.38255     11.489127
   3.40288     11.535309
   3.42321     11.596141
   3.44355     11.682053
   3.44355     11.682053
   3.46388     11.615284
   3.48421     11.535864
   3.50455     11.511721
   3.52488     11.521403
   3.54521     11.548916
   3.56554     11.588151
   3.58588     11.636470
   3.60621     11.692402
   3.62654     11.754858
   3.64688     11.822823
   3.66721     11.895183
   3.68754     11.970552
   3.70787     12.047004
   3.72821     12.121617
   3.74854     12.189560
   3.76887     12.242468
   3.78921     12.266745
   3.80954     12.247167
   3.82987     12.181423
 
# Band-Index   44
   3.82987     12.181423
   3.80954     12.247167
   3.78921     12.266745
   3.76887     12.242468
   3.74854     12.189560
   3.72821     12.121617
   3.70787     12.047004
   3.68754     11.970552
   3.66721     11.895183
   3.64688     11.822823
   3.62654     11.754858
   3.60621     11.692402
   3.58588     11.636470
   3.56554     11.588151
   3.54521     11.548916
   3.52488     11.521403
   3.50455     11.511721
   3.48421     11.535864
   3.46388     11.615284
   3.44355     11.682053
   3.44355     11.682053
   3.42321     11.596141
   3.40288     11.535309
   3.38255     11.489127
   3.36222     11.451924
   3.34188     11.420975
   3.32155     11.395004
   3.30122     11.373453
   3.28088     11.356154
   3.26055     11.343182
   3.24022     11.334769
   3.21988     11.331264
   3.19955     11.333073
   3.17922     11.340612
   3.15889     11.354125
   3.13855     11.373455
   3.11822     11.397568
   3.09789     11.426902
   3.07755     11.448633
   3.05722     11.456150
   3.05722     11.456150
   3.00742     11.454878
   2.95761     11.451832
   2.90781     11.449031
   2.85800     11.449089
   2.80820     11.454615
   2.75839     11.467877
   2.70858     11.490662
   2.65878     11.592877
   2.60897     11.929403
   2.55917     12.145819
   2.50936     12.238643
   2.45956     12.281989
   2.40975     12.303142
   2.35995     12.313898
   2.31014     12.324396
   2.26034     12.311561
   2.21053     12.402138
   2.16073     12.513871
   2.11092     12.643922
   2.11092     12.643922
   2.05809     12.579457
   2.00527     12.520936
   1.95244     12.445366
   1.89962     12.415669
   1.84679     12.416470
   1.79396     12.421200
   1.74114     12.414548
   1.68831     12.389243
   1.63548     12.344329
   1.58266     12.283577
   1.52983     12.119441
   1.47700     11.813013
   1.42418     11.635791
   1.37135     11.532525
   1.31852     11.571371
   1.26570     11.735744
   1.21287     11.499896
   1.16004     11.608360
   1.10722     11.437204
   1.10722     11.437204
   1.08961     11.406503
   1.07200     11.391122
   1.05439     11.388532
   1.03678     11.396908
   1.01917     11.415116
   1.00157     11.442480
   0.98396     11.478553
   0.96635     11.558708
   0.94874     11.647069
   0.93113     11.737751
   0.91352     11.829793
   0.89591     11.921958
   0.87830     12.012468
   0.86069     12.098540
   0.84309     12.175474
   0.82548     12.235010
   0.80787     12.263665
   0.79026     12.246445
   0.77265     12.181423
   0.77265     12.181423
   0.73198     12.506728
   0.69132     12.805634
   0.65065     12.765466
   0.60999     12.531412
   0.56932     12.452298
   0.52866     12.555066
   0.48799     12.652385
   0.44732     12.725563
   0.40666     12.762326
   0.36599     12.764584
   0.32533     12.744091
   0.28466     12.715605
   0.24399     12.693992
   0.20333     12.687594
   0.16266     12.303207
   0.12200     12.286505
   0.08133     12.412338
   0.04067     12.551515
   0.00000     12.643922
 
# Band-Index   45
   0.00000     12.877063
   0.04067     12.694841
   0.08133     12.436659
   0.12200     12.393378
   0.16266     12.507083
   0.20333     12.692341
   0.24399     12.693992
   0.28466     12.715605
   0.32533     12.744091
   0.36599     12.764584
   0.40666     12.762326
   0.44732     12.895828
   0.48799     13.250900
   0.52866     13.270134
   0.56932     13.159552
   0.60999     13.064909
   0.65065     12.988651
   0.69132     12.932982
   0.73198     12.899191
   0.77265     12.887870
   0.77265     12.887870
   0.79026     12.883647
   0.80787     12.867576
   0.82548     12.823706
   0.84309     12.751961
   0.86069     12.661943
   0.87830     12.565137
   0.89591     12.472997
   0.91352     12.397931
   0.93113     12.352304
   0.94874     12.342887
   0.96635     12.366414
   0.98396     12.413283
   1.00157     12.473696
   1.01917     12.540102
   1.03678     12.589878
   1.05439     12.531358
   1.07200     12.467227
   1.08961     12.396486
   1.10722     12.318279
   1.10722     12.318279
   1.16004     12.068104
   1.21287     12.123769
   1.26570     12.062120
   1.31852     12.179746
   1.37135     12.148181
   1.42418     12.143126
   1.47700     12.171893
   1.52983     12.230383
   1.58266     12.283577
   1.63548     12.344329
   1.68831     12.389243
   1.74114     12.414548
   1.79396     12.421200
   1.84679     12.416470
   1.89962     12.435605
   1.95244     12.445366
   2.00527     12.540842
   2.05809     12.710089
   2.11092     12.877063
   2.11092     12.877063
   2.16073     12.709181
   2.21053     12.499948
   2.26034     12.347484
   2.31014     12.324396
   2.35995     12.313898
   2.40975     12.303142
   2.45956     12.281989
   2.50936     12.238643
   2.55917     12.145819
   2.60897     11.929403
   2.65878     12.230511
   2.70858     12.195956
   2.75839     12.115672
   2.80820     12.043830
   2.85800     11.980553
   2.90781     11.928378
   2.95761     11.891068
   3.00742     11.875539
   3.05722     11.883740
   3.05722     11.883740
   3.07755     11.877805
   3.09789     11.872927
   3.11822     11.881031
   3.13855     11.898617
   3.15889     11.919577
   3.17922     11.940560
   3.19955     11.960365
   3.21988     11.978822
   3.24022     11.996125
   3.26055     12.012573
   3.28088     12.028424
   3.30122     12.043883
   3.32155     12.059090
   3.34188     12.074135
   3.36222     12.089077
   3.38255     12.103951
   3.40288     12.118810
   3.42321     12.133754
   3.44355     12.149065
   3.44355     12.149065
   3.46388     12.253707
   3.48421     12.463058
   3.50455     12.695918
   3.52488     12.707042
   3.54521     12.633126
   3.56554     12.556014
   3.58588     12.482596
   3.60621     12.421494
   3.62654     12.383528
   3.64688     12.379819
   3.66721     12.415422
   3.68754     12.484165
   3.70787     12.572804
   3.72821     12.667751
   3.74854     12.756627
   3.76887     12.827260
   3.78921     12.869688
   3.80954     12.884293
   3.82987     12.887870
 
# Band-Index   46
   3.82987     12.887870
   3.80954     12.884293
   3.78921     12.869688
   3.76887     12.827260
   3.74854     12.756627
   3.72821     12.667751
   3.70787     12.572804
   3.68754     12.484165
   3.66721     12.415422
   3.64688     12.379819
   3.62654     12.383528
   3.60621     12.421494
   3.58588     12.482596
   3.56554     12.556014
   3.54521     12.633126
   3.52488     12.707042
   3.50455     12.695918
   3.48421     12.463058
   3.46388     12.253707
   3.44355     12.149065
   3.44355     12.149065
   3.42321     12.133754
   3.40288     12.118810
   3.38255     12.103951
   3.36222     12.089077
   3.34188     12.074135
   3.32155     12.059090
   3.30122     12.043883
   3.28088     12.028424
   3.26055     12.012573
   3.24022     11.996125
   3.21988     11.978822
   3.19955     11.960365
   3.17922     11.940560
   3.15889     11.919577
   3.13855     11.898617
   3.11822     11.881031
   3.09789     11.872927
   3.07755     11.877805
   3.05722     11.883740
   3.05722     11.883740
   3.00742     11.875539
   2.95761     11.891068
   2.90781     11.928378
   2.85800     11.980553
   2.80820     12.043830
   2.75839     12.115672
   2.70858     12.195956
   2.65878     12.293462
   2.60897     12.454908
   2.55917     12.793466
   2.50936     13.290140
   2.45956     13.665515
   2.40975     13.302693
   2.35995     12.822043
   2.31014     12.372137
   2.26034     12.347484
   2.21053     12.499948
   2.16073     12.709181
   2.11092     12.877063
   2.11092     12.877063
   2.05809     12.710089
   2.00527     12.540842
   1.95244     12.479762
   1.89962     12.463647
   1.84679     12.451810
   1.79396     12.850426
   1.74114     13.277370
   1.68831     13.375231
   1.63548     12.985184
   1.58266     12.533997
   1.52983     12.230383
   1.47700     12.171893
   1.42418     12.143126
   1.37135     12.148181
   1.31852     12.179746
   1.26570     12.204671
   1.21287     12.123769
   1.16004     12.068104
   1.10722     12.318279
   1.10722     12.318279
   1.08961     12.396486
   1.07200     12.467227
   1.05439     12.531358
   1.03678     12.589878
   1.01917     12.643581
   1.00157     12.692990
   0.98396     12.738357
   0.96635     12.779695
   0.94874     12.816835
   0.93113     12.849394
   0.91352     12.876837
   0.89591     12.898472
   0.87830     12.913501
   0.86069     12.921173
   0.84309     12.921140
   0.82548     12.914143
   0.80787     12.902870
   0.79026     12.892261
   0.77265     12.887870
   0.77265     12.887870
   0.73198     12.899191
   0.69132     12.932982
   0.65065     12.988651
   0.60999     13.064909
   0.56932     13.159552
   0.52866     13.270134
   0.48799     13.396321
   0.44732     13.539975
   0.40666     13.691801
   0.36599     13.540067
   0.32533     13.345012
   0.28466     13.126680
   0.24399     12.901767
   0.20333     12.692341
   0.16266     12.717866
   0.12200     12.766672
   0.08133     12.823614
   0.04067     12.867547
   0.00000     12.877063
 
# Band-Index   47
   0.00000     12.877063
   0.04067     12.867547
   0.08133     12.823614
   0.12200     12.766672
   0.16266     12.717866
   0.20333     12.720178
   0.24399     13.162856
   0.28466     13.626863
   0.32533     13.873869
   0.36599     13.822533
   0.40666     13.693312
   0.44732     13.539975
   0.48799     13.396321
   0.52866     13.627349
   0.56932     13.520052
   0.60999     13.314599
   0.65065     13.075532
   0.69132     12.983007
   0.73198     12.922011
   0.77265     12.887870
   0.77265     12.887870
   0.79026     12.892261
   0.80787     12.902870
   0.82548     12.914143
   0.84309     12.921140
   0.86069     12.921173
   0.87830     12.913501
   0.89591     12.898472
   0.91352     12.876837
   0.93113     12.849394
   0.94874     12.816835
   0.96635     12.779695
   0.98396     12.738357
   1.00157     12.692990
   1.01917     12.643581
   1.03678     12.607148
   1.05439     12.671085
   1.07200     12.729361
   1.08961     12.780367
   1.10722     12.823268
   1.10722     12.823268
   1.16004     12.611708
   1.21287     12.176943
   1.26570     12.204671
   1.31852     12.343862
   1.37135     12.689939
   1.42418     12.865896
   1.47700     12.755252
   1.52983     12.406296
   1.58266     12.533997
   1.63548     12.985184
   1.68831     13.452943
   1.74114     13.654313
   1.79396     13.555087
   1.84679     13.102601
   1.89962     12.607507
   1.95244     12.555344
   2.00527     12.659432
   2.05809     12.782253
   2.11092     12.877063
   2.11092     12.877063
   2.16073     12.709181
   2.21053     12.499948
   2.26034     12.347484
   2.31014     12.372137
   2.35995     12.822043
   2.40975     13.302693
   2.45956     13.665515
   2.50936     13.290140
   2.55917     12.793466
   2.60897     12.454908
   2.65878     12.293462
   2.70858     12.195956
   2.75839     12.115672
   2.80820     12.043830
   2.85800     11.980553
   2.90781     11.928378
   2.95761     11.891068
   3.00742     11.875539
   3.05722     11.883740
   3.05722     11.883740
   3.07755     11.895885
   3.09789     11.927157
   3.11822     11.972142
   3.13855     12.028536
   3.15889     12.094360
   3.17922     12.167487
   3.19955     12.245808
   3.21988     12.327318
   3.24022     12.410108
   3.26055     12.492309
   3.28088     12.572005
   3.30122     12.647171
   3.32155     12.715637
   3.34188     12.775091
   3.36222     12.823166
   3.38255     12.857639
   3.40288     12.876743
   3.42321     12.879534
   3.44355     12.866196
   3.44355     12.866196
   3.46388     12.855055
   3.48421     12.822669
   3.50455     12.771924
   3.52488     12.927350
   3.54521     13.143772
   3.56554     13.332767
   3.58588     13.481732
   3.60621     13.580627
   3.62654     13.626111
   3.64688     13.622544
   3.66721     13.578623
   3.68754     13.503558
   3.70787     13.405580
   3.72821     13.292464
   3.74854     13.172877
   3.76887     13.058301
   3.78921     12.964535
   3.80954     12.907526
   3.82987     12.887870
 
# Band-Index   48
   3.82987     12.887870
   3.80954     12.907526
   3.78921     12.964535
   3.76887     13.058301
   3.74854     13.172877
   3.72821     13.292464
   3.70787     13.405580
   3.68754     13.503558
   3.66721     13.578623
   3.64688     13.622544
   3.62654     13.626111
   3.60621     13.580627
   3.58588     13.481732
   3.56554     13.332767
   3.54521     13.143772
   3.52488     12.927350
   3.50455     12.771924
   3.48421     12.822669
   3.46388     12.855055
   3.44355     12.866196
   3.44355     12.866196
   3.42321     12.879534
   3.40288     12.876743
   3.38255     12.857639
   3.36222     12.823166
   3.34188     12.775091
   3.32155     12.715637
   3.30122     12.647171
   3.28088     12.572005
   3.26055     12.492309
   3.24022     12.410108
   3.21988     12.327318
   3.19955     12.245808
   3.17922     12.167487
   3.15889     12.094360
   3.13855     12.028536
   3.11822     11.972142
   3.09789     11.927157
   3.07755     11.895885
   3.05722     11.883740
   3.05722     11.883740
   3.00742     12.013026
   2.95761     12.320280
   2.90781     12.678463
   2.85800     12.845582
   2.80820     12.952838
   2.75839     13.017536
   2.70858     12.686750
   2.65878     12.293462
   2.60897     12.454908
   2.55917     12.793466
   2.50936     13.290140
   2.45956     13.665515
   2.40975     13.672901
   2.35995     13.642323
   2.31014     13.576011
   2.26034     13.475846
   2.21053     13.340070
   2.16073     13.123598
   2.11092     12.877063
   2.11092     12.877063
   2.05809     13.075550
   2.00527     13.216784
   1.95244     13.309869
   1.89962     13.390306
   1.84679     13.469166
   1.79396     13.621672
   1.74114     13.757069
   1.68831     13.452943
   1.63548     13.128039
   1.58266     12.986222
   1.52983     12.909779
   1.47700     12.874147
   1.42418     12.870823
   1.37135     12.876153
   1.31852     12.896896
   1.26570     12.900969
   1.21287     12.927497
   1.16004     12.903926
   1.10722     13.098232
   1.10722     13.098232
   1.08961     13.250485
   1.07200     13.391481
   1.05439     13.516996
   1.03678     13.622541
   1.01917     13.703809
   1.00157     13.757384
   0.98396     13.781518
   0.96635     13.776469
   0.94874     13.744189
   0.93113     13.687622
   0.91352     13.610086
   0.89591     13.515026
   0.87830     13.406189
   0.86069     13.288186
   0.84309     13.167491
   0.82548     13.053943
   0.80787     12.962092
   0.79026     12.906831
   0.77265     12.887870
   0.77265     12.887870
   0.73198     12.966411
   0.69132     13.122734
   0.65065     13.331251
   0.60999     13.575749
   0.56932     13.822604
   0.52866     13.680089
   0.48799     13.772142
   0.44732     13.775919
   0.40666     13.693312
   0.36599     13.822533
   0.32533     13.873869
   0.28466     13.818714
   0.24399     13.685605
   0.20333     13.517472
   0.16266     13.340736
   0.12200     13.170784
   0.08133     13.021781
   0.04067     12.914333
   0.00000     12.877063
 
# Band-Index   49
   0.00000     12.877063
   0.04067     12.914333
   0.08133     13.021781
   0.12200     13.170784
   0.16266     13.340736
   0.20333     13.517472
   0.24399     13.685605
   0.28466     13.818714
   0.32533     14.109474
   0.36599     14.564584
   0.40666     14.346718
   0.44732     14.144360
   0.48799     13.990102
   0.52866     13.885727
   0.56932     13.822604
   0.60999     13.787632
   0.65065     13.530850
   0.69132     13.239138
   0.73198     13.411125
   0.77265     13.755401
   0.77265     13.755401
   0.79026     13.678441
   0.80787     13.639311
   0.82548     13.643468
   0.84309     13.685744
   0.86069     13.754775
   0.87830     13.840132
   0.89591     13.934444
   0.91352     14.032784
   0.93113     14.131702
   0.94874     14.228711
   0.96635     14.322069
   0.98396     14.410873
   1.00157     14.495184
   1.01917     14.475378
   1.03678     14.294537
   1.05439     14.100806
   1.07200     13.905863
   1.08961     13.717546
   1.10722     13.542320
   1.10722     13.542320
   1.16004     13.154692
   1.21287     13.093597
   1.26570     12.918536
   1.31852     13.177132
   1.37135     13.740586
   1.42418     14.379925
   1.47700     14.449473
   1.52983     14.247571
   1.58266     14.067088
   1.63548     13.908377
   1.68831     13.728786
   1.74114     13.865983
   1.79396     14.040405
   1.84679     13.937410
   1.89962     13.736797
   1.95244     13.516372
   2.00527     13.297902
   2.05809     13.075550
   2.11092     12.877063
   2.11092     12.877063
   2.16073     13.123598
   2.21053     13.340070
   2.26034     13.475846
   2.31014     13.576011
   2.35995     13.642323
   2.40975     13.672901
   2.45956     13.809163
   2.50936     13.620870
   2.55917     13.543680
   2.60897     13.441614
   2.65878     13.323498
   2.70858     13.197838
   2.75839     13.072136
   2.80820     12.952838
   2.85800     12.845582
   2.90781     12.755409
   2.95761     12.686884
   3.00742     12.643923
   3.05722     12.629267
   3.05722     12.629267
   3.07755     12.639983
   3.09789     12.671313
   3.11822     12.721122
   3.13855     12.786676
   3.15889     12.865265
   3.17922     12.954559
   3.19955     13.052697
   3.21988     13.158233
   3.24022     13.270069
   3.26055     13.387353
   3.28088     13.509422
   3.30122     13.635722
   3.32155     13.765793
   3.34188     13.899201
   3.36222     14.035495
   3.38255     14.174164
   3.40288     14.314538
   3.42321     14.455618
   3.44355     14.595666
   3.44355     14.595666
   3.46388     14.595767
   3.48421     14.594764
   3.50455     14.589149
   3.52488     14.574242
   3.54521     14.545580
   3.56554     14.500246
   3.58588     14.437661
   3.60621     14.359470
   3.62654     14.268807
   3.64688     14.169440
   3.66721     14.065304
   3.68754     13.960422
   3.70787     13.859272
   3.72821     13.767493
   3.74854     13.692990
   3.76887     13.646695
   3.78921     13.640265
   3.80954     13.678573
   3.82987     13.755401
 
# Band-Index   50
   3.82987     13.755401
   3.80954     13.678573
   3.78921     13.640265
   3.76887     13.646695
   3.74854     13.692990
   3.72821     13.767493
   3.70787     13.859272
   3.68754     13.960422
   3.66721     14.065304
   3.64688     14.169440
   3.62654     14.268807
   3.60621     14.359470
   3.58588     14.437661
   3.56554     14.500246
   3.54521     14.545580
   3.52488     14.574242
   3.50455     14.589149
   3.48421     14.594764
   3.46388     14.595767
   3.44355     14.595666
   3.44355     14.595666
   3.42321     14.455618
   3.40288     14.314538
   3.38255     14.174164
   3.36222     14.035495
   3.34188     13.899201
   3.32155     13.765793
   3.30122     13.635722
   3.28088     13.509422
   3.26055     13.387353
   3.24022     13.270069
   3.21988     13.158233
   3.19955     13.052697
   3.17922     12.954559
   3.15889     12.865265
   3.13855     12.786676
   3.11822     12.721122
   3.09789     12.671313
   3.07755     12.639983
   3.05722     12.629267
   3.05722     12.629267
   3.00742     12.643923
   2.95761     12.686884
   2.90781     12.755409
   2.85800     12.845582
   2.80820     12.952838
   2.75839     13.072136
   2.70858     13.197838
   2.65878     13.323498
   2.60897     13.441614
   2.55917     13.543680
   2.50936     13.620870
   2.45956     13.809163
   2.40975     13.672901
   2.35995     13.642323
   2.31014     13.576011
   2.26034     13.475846
   2.21053     13.340070
   2.16073     13.123598
   2.11092     12.877063
   2.11092     12.877063
   2.05809     13.078181
   2.00527     13.297902
   1.95244     13.516372
   1.89962     13.736797
   1.84679     13.937410
   1.79396     14.040405
   1.74114     13.865983
   1.68831     13.771193
   1.63548     14.200183
   1.58266     14.681237
   1.52983     15.112404
   1.47700     14.997397
   1.42418     14.672158
   1.37135     14.652567
   1.31852     14.032222
   1.26570     13.450170
   1.21287     13.093597
   1.16004     13.154692
   1.10722     13.542320
   1.10722     13.542320
   1.08961     13.717546
   1.07200     13.905863
   1.05439     14.100806
   1.03678     14.294537
   1.01917     14.475378
   1.00157     14.623101
   0.98396     14.706753
   0.96635     14.705488
   0.94874     14.635967
   0.93113     14.529558
   0.91352     14.407624
   0.89591     14.282009
   0.87830     14.159959
   0.86069     14.046858
   0.84309     13.947337
   0.82548     13.865570
   0.80787     13.804978
   0.79026     13.767872
   0.77265     13.755401
   0.77265     13.755401
   0.73198     13.756516
   0.69132     13.760488
   0.65065     13.769432
   0.60999     13.787632
   0.56932     13.842373
   0.52866     13.885727
   0.48799     13.990102
   0.44732     14.144360
   0.40666     14.346718
   0.36599     14.564584
   0.32533     14.613855
   0.28466     14.513813
   0.24399     14.377443
   0.20333     14.198971
   0.16266     13.920711
   0.12200     13.650634
   0.08133     13.404619
   0.04067     13.097163
   0.00000     12.877063
 
# Band-Index   51
   0.00000     13.011885
   0.04067     13.150977
   0.08133     13.420899
   0.12200     13.710165
   0.16266     13.975257
   0.20333     14.198971
   0.24399     14.377443
   0.28466     14.513813
   0.32533     14.613855
   0.36599     14.608756
   0.40666     14.956484
   0.44732     14.687949
   0.48799     14.405148
   0.52866     14.120999
   0.56932     13.959619
   0.60999     13.914892
   0.65065     13.769432
   0.69132     13.760488
   0.73198     13.756516
   0.77265     13.755401
   0.77265     13.755401
   0.79026     13.767872
   0.80787     13.804978
   0.82548     13.865570
   0.84309     13.947337
   0.86069     14.046858
   0.87830     14.159959
   0.89591     14.282009
   0.91352     14.407624
   0.93113     14.529558
   0.94874     14.635967
   0.96635     14.705488
   0.98396     14.706753
   1.00157     14.623101
   1.01917     14.576080
   1.03678     14.655526
   1.05439     14.735957
   1.07200     14.695628
   1.08961     14.481701
   1.10722     14.271944
   1.10722     14.271944
   1.16004     13.674639
   1.21287     13.160862
   1.26570     13.450170
   1.31852     14.032222
   1.37135     14.652567
   1.42418     15.162168
   1.47700     15.368746
   1.52983     15.340239
   1.58266     15.228573
   1.63548     15.085541
   1.68831     14.727270
   1.74114     14.163323
   1.79396     14.226989
   1.84679     14.549806
   1.89962     14.376453
   1.95244     13.947836
   2.00527     13.479841
   2.05809     13.103152
   2.11092     13.011885
   2.11092     13.011885
   2.16073     13.166991
   2.21053     13.546572
   2.26034     14.023932
   2.31014     14.476210
   2.35995     14.692214
   2.40975     14.386610
   2.45956     13.847106
   2.50936     13.620870
   2.55917     13.543680
   2.60897     13.441614
   2.65878     13.323498
   2.70858     13.197838
   2.75839     13.072136
   2.80820     13.124322
   2.85800     12.982906
   2.90781     12.755409
   2.95761     12.686884
   3.00742     12.643923
   3.05722     12.629267
   3.05722     12.629267
   3.07755     12.641973
   3.09789     12.679880
   3.11822     12.742200
   3.13855     12.827312
   3.15889     12.932745
   3.17922     13.055550
   3.19955     13.192722
   3.21988     13.341524
   3.24022     13.499586
   3.26055     13.664960
   3.28088     13.835998
   3.30122     14.011338
   3.32155     14.189787
   3.34188     14.370297
   3.36222     14.551889
   3.38255     14.733614
   3.40288     14.914506
   3.42321     15.093478
   3.44355     15.269279
   3.44355     15.269279
   3.46388     15.264533
   3.48421     15.251736
   3.50455     15.234992
   3.52488     15.220632
   3.54521     15.216857
   3.56554     15.233070
   3.58588     15.276633
   3.60621     15.338783
   3.62654     15.336895
   3.64688     15.191487
   3.66721     14.999325
   3.68754     14.804192
   3.70787     14.616496
   3.72821     14.439705
   3.74854     14.275042
   3.76887     14.122933
   3.78921     13.983958
   3.80954     13.859959
   3.82987     13.755401
 
# Band-Index   52
   3.82987     13.755401
   3.80954     13.859959
   3.78921     13.983958
   3.76887     14.122933
   3.74854     14.275042
   3.72821     14.439705
   3.70787     14.616496
   3.68754     14.804192
   3.66721     14.999325
   3.64688     15.191487
   3.62654     15.336895
   3.60621     15.338783
   3.58588     15.276633
   3.56554     15.233070
   3.54521     15.216857
   3.52488     15.220632
   3.50455     15.234992
   3.48421     15.251736
   3.46388     15.264533
   3.44355     15.269279
   3.44355     15.269279
   3.42321     15.093478
   3.40288     14.914506
   3.38255     14.733614
   3.36222     14.551889
   3.34188     14.370297
   3.32155     14.189787
   3.30122     14.011338
   3.28088     13.835998
   3.26055     13.664960
   3.24022     13.499586
   3.21988     13.341524
   3.19955     13.192722
   3.17922     13.055550
   3.15889     12.932745
   3.13855     12.827312
   3.11822     12.742200
   3.09789     12.679880
   3.07755     12.641973
   3.05722     12.629267
   3.05722     12.629267
   3.00742     12.834979
   2.95761     13.273921
   2.90781     13.795884
   2.85800     14.357648
   2.80820     14.942407
   2.75839     15.531818
   2.70858     16.038085
   2.65878     15.951507
   2.60897     15.437876
   2.55917     14.883908
   2.50936     14.337708
   2.45956     13.847106
   2.40975     14.386610
   2.35995     14.692214
   2.31014     14.476210
   2.26034     14.023932
   2.21053     13.546572
   2.16073     13.166991
   2.11092     13.011885
   2.11092     13.011885
   2.05809     13.279080
   2.00527     13.729589
   1.95244     14.211172
   1.89962     14.651824
   1.84679     14.947515
   1.79396     14.903496
   1.74114     14.832692
   1.68831     14.935880
   1.63548     15.085541
   1.58266     15.228573
   1.52983     15.340239
   1.47700     15.368746
   1.42418     15.162168
   1.37135     14.914871
   1.31852     15.176772
   1.26570     15.457023
   1.21287     15.686065
   1.16004     15.335386
   1.10722     15.005448
   1.10722     15.005448
   1.08961     14.909239
   1.07200     14.819846
   1.05439     14.913300
   1.03678     15.134382
   1.01917     15.358616
   1.00157     15.585762
   0.98396     15.623779
   0.96635     15.526966
   0.94874     15.359302
   0.93113     15.171463
   0.91352     14.978953
   0.89591     14.789633
   0.87830     14.607581
   0.86069     14.434948
   0.84309     14.272897
   0.82548     14.122151
   0.80787     13.983738
   0.79026     13.859914
   0.77265     13.755401
   0.77265     13.755401
   0.73198     14.140333
   0.69132     14.536177
   0.65065     14.903101
   0.60999     14.846646
   0.56932     14.908106
   0.52866     15.419766
   0.48799     15.470539
   0.44732     15.371550
   0.40666     15.123143
   0.36599     14.964138
   0.32533     15.071293
   0.28466     14.837806
   0.24399     14.519729
   0.20333     14.212167
   0.16266     13.975257
   0.12200     13.710165
   0.08133     13.420899
   0.04067     13.150977
   0.00000     13.011885
 
# Band-Index   53
   0.00000     13.011885
   0.04067     13.179954
   0.08133     13.444808
   0.12200     13.824431
   0.16266     14.215068
   0.20333     14.598801
   0.24399     14.948100
   0.28466     15.207833
   0.32533     15.071293
   0.36599     14.964138
   0.40666     15.129085
   0.44732     15.371550
   0.48799     15.647724
   0.52866     15.431340
   0.56932     15.350343
   0.60999     15.187289
   0.65065     15.237208
   0.69132     15.731998
   0.73198     16.261800
   0.77265     16.805768
   0.77265     16.805768
   0.79026     16.668076
   0.80787     16.532242
   0.82548     16.403067
   0.84309     16.283187
   0.86069     16.174423
   0.87830     16.078293
   0.89591     15.996237
   0.91352     15.929705
   0.93113     15.880176
   0.94874     15.833036
   0.96635     15.694803
   0.98396     15.623779
   1.00157     15.637575
   1.01917     15.715718
   1.03678     15.776574
   1.05439     15.810446
   1.07200     15.855084
   1.08961     15.910154
   1.10722     15.973869
   1.10722     15.973869
   1.16004     16.068932
   1.21287     15.754722
   1.26570     15.897352
   1.31852     15.872124
   1.37135     15.767107
   1.42418     15.609650
   1.47700     15.572152
   1.52983     15.513371
   1.58266     15.487027
   1.63548     15.312669
   1.68831     14.935880
   1.74114     14.832692
   1.79396     14.903496
   1.84679     14.947515
   1.89962     14.651824
   1.95244     14.211172
   2.00527     13.729589
   2.05809     13.279080
   2.11092     13.011885
   2.11092     13.011885
   2.16073     13.166991
   2.21053     13.546572
   2.26034     14.023932
   2.31014     14.476210
   2.35995     14.692214
   2.40975     14.386610
   2.45956     13.847106
   2.50936     14.337708
   2.55917     14.883908
   2.60897     15.437876
   2.65878     15.951507
   2.70858     16.038085
   2.75839     15.531818
   2.80820     14.942407
   2.85800     14.357648
   2.90781     13.795884
   2.95761     13.273921
   3.00742     12.834979
   3.05722     12.629267
   3.05722     12.629267
   3.07755     12.671908
   3.09789     12.784123
   3.11822     12.939013
   3.13855     13.118256
   3.15889     13.312017
   3.17922     13.515078
   3.19955     13.724471
   3.21988     13.938380
   3.24022     14.155554
   3.26055     14.375088
   3.28088     14.596208
   3.30122     14.818232
   3.32155     15.040440
   3.34188     15.262064
   3.36222     15.482180
   3.38255     15.680098
   3.40288     15.650148
   3.42321     15.630277
   3.44355     15.627751
   3.44355     15.627751
   3.46388     15.628697
   3.48421     15.630921
   3.50455     15.633250
   3.52488     15.635605
   3.54521     15.640227
   3.56554     15.651097
   3.58588     15.672039
   3.60621     15.705347
   3.62654     15.705794
   3.64688     15.810989
   3.66721     15.882458
   3.68754     15.965477
   3.70787     16.059430
   3.72821     16.163735
   3.74854     16.277766
   3.76887     16.400737
   3.78921     16.531479
   3.80954     16.667929
   3.82987     16.805768
 
# Band-Index   54
   3.82987     16.805768
   3.80954     16.667929
   3.78921     16.531479
   3.76887     16.400737
   3.74854     16.277766
   3.72821     16.163735
   3.70787     16.059430
   3.68754     15.965477
   3.66721     15.882458
   3.64688     15.810989
   3.62654     15.705794
   3.60621     15.705347
   3.58588     15.672039
   3.56554     15.651097
   3.54521     15.640227
   3.52488     15.635605
   3.50455     15.633250
   3.48421     15.630921
   3.46388     15.628697
   3.44355     15.627751
   3.44355     15.627751
   3.42321     15.630277
   3.40288     15.650148
   3.38255     15.680098
   3.36222     15.482180
   3.34188     15.262064
   3.32155     15.040440
   3.30122     14.818232
   3.28088     14.596208
   3.26055     14.375088
   3.24022     14.155554
   3.21988     13.938380
   3.19955     13.724471
   3.17922     13.515078
   3.15889     13.312017
   3.13855     13.118256
   3.11822     12.939013
   3.09789     12.784123
   3.07755     12.671908
   3.05722     12.629267
   3.05722     12.629267
   3.00742     12.913010
   2.95761     13.485435
   2.90781     14.145913
   2.85800     14.839232
   2.80820     15.537661
   2.75839     16.207369
   2.70858     16.752913
   2.65878     17.014262
   2.60897     16.995526
   2.55917     16.875961
   2.50936     16.680433
   2.45956     16.390895
   2.40975     16.051520
   2.35995     15.624738
   2.31014     15.163022
   2.26034     14.759166
   2.21053     14.433987
   2.16073     14.216919
   2.11092     14.139611
   2.11092     14.139611
   2.05809     14.226811
   2.00527     14.473917
   1.95244     14.849446
   1.89962     15.322874
   1.84679     15.530948
   1.79396     15.483385
   1.74114     15.521049
   1.68831     15.512392
   1.63548     15.490935
   1.58266     15.911247
   1.52983     16.038712
   1.47700     15.778428
   1.42418     15.659724
   1.37135     15.775056
   1.31852     16.133058
   1.26570     16.338973
   1.21287     16.396760
   1.16004     16.194105
   1.10722     16.285135
   1.10722     16.285135
   1.08961     16.188383
   1.07200     16.074472
   1.05439     15.950975
   1.03678     15.827137
   1.01917     15.715718
   1.00157     15.637575
   0.98396     15.649994
   0.96635     15.694803
   0.94874     15.833036
   0.93113     16.005205
   0.91352     16.186758
   0.89591     16.360735
   0.87830     16.512978
   0.86069     16.631978
   0.84309     16.713407
   0.82548     16.762539
   0.80787     16.789264
   0.79026     16.802032
   0.77265     16.805768
   0.77265     16.805768
   0.73198     16.802837
   0.69132     16.792399
   0.65065     16.764361
   0.60999     16.572003
   0.56932     16.256828
   0.52866     15.945219
   0.48799     15.647724
   0.44732     15.565186
   0.40666     15.129085
   0.36599     15.180493
   0.32533     15.161425
   0.28466     15.416321
   0.24399     15.640364
   0.20333     15.239466
   0.16266     14.881294
   0.12200     14.577347
   0.08133     14.342088
   0.04067     14.191614
   0.00000     14.139611
 
# Band-Index   55
   0.00000     14.734494
   0.04067     14.789994
   0.08133     14.942496
   0.12200     15.161926
   0.16266     15.420051
   0.20333     15.696713
   0.24399     15.837876
   0.28466     15.416321
   0.32533     15.291906
   0.36599     15.486558
   0.40666     15.726891
   0.44732     15.651107
   0.48799     16.070151
   0.52866     15.945219
   0.56932     16.256828
   0.60999     16.572003
   0.65065     16.764361
   0.69132     16.792399
   0.73198     16.802837
   0.77265     16.805768
   0.77265     16.805768
   0.79026     16.802032
   0.80787     16.789264
   0.82548     16.762539
   0.84309     16.713407
   0.86069     16.631978
   0.87830     16.512978
   0.89591     16.360735
   0.91352     16.186758
   0.93113     16.005205
   0.94874     15.849078
   0.96635     15.837611
   0.98396     15.815572
   1.00157     15.716699
   1.01917     15.749740
   1.03678     15.827137
   1.05439     15.950975
   1.07200     16.074472
   1.08961     16.188383
   1.10722     16.285135
   1.10722     16.285135
   1.16004     16.434828
   1.21287     16.419762
   1.26570     16.338973
   1.31852     16.245697
   1.37135     16.181107
   1.42418     16.238673
   1.47700     15.968403
   1.52983     16.062755
   1.58266     16.002885
   1.63548     16.003419
   1.68831     16.072366
   1.74114     16.183596
   1.79396     15.918210
   1.84679     15.871119
   1.89962     15.977307
   1.95244     15.501800
   2.00527     15.096722
   2.05809     14.829122
   2.11092     14.734494
   2.11092     14.734494
   2.16073     14.819409
   2.21053     15.063084
   2.26034     15.434404
   2.31014     15.894089
   2.35995     15.905613
   2.40975     16.051520
   2.45956     16.390895
   2.50936     16.680433
   2.55917     16.875961
   2.60897     16.995526
   2.65878     17.014262
   2.70858     16.762557
   2.75839     16.207369
   2.80820     15.537661
   2.85800     14.839232
   2.90781     14.145913
   2.95761     13.485435
   3.00742     12.913010
   3.05722     12.629267
   3.05722     12.629267
   3.07755     12.688033
   3.09789     12.843035
   3.11822     13.057602
   3.13855     13.306499
   3.15889     13.575779
   3.17922     13.857472
   3.19955     14.146243
   3.21988     14.437596
   3.24022     14.726568
   3.26055     15.006174
   3.28088     15.264809
   3.30122     15.482774
   3.32155     15.633166
   3.34188     15.701285
   3.36222     15.705655
   3.38255     15.699610
   3.40288     15.912773
   3.42321     16.119358
   3.44355     16.273714
   3.44355     16.273714
   3.46388     16.273843
   3.48421     16.277267
   3.50455     16.291361
   3.52488     16.323803
   3.54521     16.288280
   3.56554     16.149305
   3.58588     15.964020
   3.60621     15.782470
   3.62654     15.751742
   3.64688     15.815155
   3.66721     16.006979
   3.68754     16.227776
   3.70787     16.456165
   3.72821     16.675586
   3.74854     16.866497
   3.76887     16.997366
   3.78921     17.018725
   3.80954     16.933812
   3.82987     16.805768
 
# Band-Index   56
   3.82987     16.805768
   3.80954     16.933812
   3.78921     17.018725
   3.76887     16.997366
   3.74854     16.866497
   3.72821     16.675586
   3.70787     16.456165
   3.68754     16.227776
   3.66721     16.006979
   3.64688     15.815155
   3.62654     15.751742
   3.60621     15.782470
   3.58588     15.964020
   3.56554     16.149305
   3.54521     16.288280
   3.52488     16.323803
   3.50455     16.291361
   3.48421     16.277267
   3.46388     16.273843
   3.44355     16.273714
   3.44355     16.273714
   3.42321     16.119358
   3.40288     15.912773
   3.38255     15.699610
   3.36222     15.705655
   3.34188     15.701285
   3.32155     15.633166
   3.30122     15.482774
   3.28088     15.264809
   3.26055     15.006174
   3.24022     14.726568
   3.21988     14.437596
   3.19955     14.146243
   3.17922     13.857472
   3.15889     13.575779
   3.13855     13.306499
   3.11822     13.057602
   3.09789     12.843035
   3.07755     12.688033
   3.05722     12.629267
   3.05722     12.629267
   3.00742     12.913010
   2.95761     13.485435
   2.90781     14.145913
   2.85800     14.839232
   2.80820     15.537661
   2.75839     16.207369
   2.70858     16.762557
   2.65878     17.014262
   2.60897     16.995526
   2.55917     16.875961
   2.50936     16.680433
   2.45956     16.390895
   2.40975     16.051520
   2.35995     15.905613
   2.31014     15.894089
   2.26034     15.434404
   2.21053     15.063084
   2.16073     14.819409
   2.11092     14.734494
   2.11092     14.734494
   2.05809     14.829122
   2.00527     15.096722
   1.95244     15.501800
   1.89962     15.977307
   1.84679     15.918937
   1.79396     15.918210
   1.74114     16.183596
   1.68831     16.477466
   1.63548     16.742950
   1.58266     16.700429
   1.52983     16.189908
   1.47700     16.174383
   1.42418     16.238673
   1.37135     16.181107
   1.31852     16.245697
   1.26570     16.421371
   1.21287     16.419762
   1.16004     16.434828
   1.10722     16.355908
   1.10722     16.355908
   1.08961     16.257379
   1.07200     16.160142
   1.05439     16.069510
   1.03678     15.989644
   1.01917     15.924055
   1.00157     15.875658
   0.98396     15.846491
   0.96635     16.047862
   0.94874     16.282418
   0.93113     16.397930
   0.91352     16.505593
   0.89591     16.626076
   0.87830     16.750569
   0.86069     16.870559
   0.84309     16.974211
   0.82548     17.038450
   0.80787     17.025955
   0.79026     16.934294
   0.77265     16.805768
   0.77265     16.805768
   0.73198     17.272383
   0.69132     17.164994
   0.65065     16.924219
   0.60999     16.759818
   0.56932     16.698232
   0.52866     16.616151
   0.48799     16.190784
   0.44732     16.130120
   0.40666     15.810156
   0.36599     15.947895
   0.32533     16.203101
   0.28466     16.075167
   0.24399     15.837876
   0.20333     16.031442
   0.16266     15.612707
   0.12200     15.241405
   0.08133     14.962386
   0.04067     14.791772
   0.00000     14.734494
 
# Band-Index   57
   0.00000     14.734494
   0.04067     14.791772
   0.08133     14.962386
   0.12200     15.241405
   0.16266     15.612707
   0.20333     16.031442
   0.24399     15.978756
   0.28466     16.257857
   0.32533     16.203101
   0.36599     16.205864
   0.40666     16.280147
   0.44732     16.391432
   0.48799     16.445235
   0.52866     16.616151
   0.56932     16.698232
   0.60999     16.759818
   0.65065     16.924219
   0.69132     17.223974
   0.73198     17.457505
   0.77265     17.590280
   0.77265     17.590280
   0.79026     17.537812
   0.80787     17.515708
   0.82548     17.509197
   0.84309     17.452035
   0.86069     17.394945
   0.87830     17.237656
   0.89591     16.997065
   0.91352     16.757348
   0.93113     16.519012
   0.94874     16.315123
   0.96635     16.276551
   0.98396     16.310030
   1.00157     16.429362
   1.01917     16.612122
   1.03678     16.828720
   1.05439     16.742046
   1.07200     16.626048
   1.08961     16.511507
   1.10722     16.398468
   1.10722     16.398468
   1.16004     16.561543
   1.21287     16.546755
   1.26570     16.648517
   1.31852     16.751033
   1.37135     16.523893
   1.42418     16.330122
   1.47700     16.563142
   1.52983     16.636959
   1.58266     16.894246
   1.63548     16.742950
   1.68831     16.477466
   1.74114     16.213137
   1.79396     16.410538
   1.84679     15.918937
   1.89962     15.997024
   1.95244     15.515171
   2.00527     15.103291
   2.05809     14.830360
   2.11092     14.734494
   2.11092     14.734494
   2.16073     14.819409
   2.21053     15.063084
   2.26034     15.434404
   2.31014     15.894089
   2.35995     15.905613
   2.40975     16.130365
   2.45956     16.668921
   2.50936     17.224758
   2.55917     17.724406
   2.60897     17.665387
   2.65878     17.079112
   2.70858     16.762557
   2.75839     16.479491
   2.80820     16.470423
   2.85800     16.750673
   2.90781     17.237275
   2.95761     17.824971
   3.00742     18.401705
   3.05722     18.701890
   3.05722     18.701890
   3.07755     18.661922
   3.09789     18.552689
   3.11822     18.396248
   3.13855     18.212316
   3.15889     18.014462
   3.17922     17.811685
   3.19955     17.610506
   3.21988     17.416562
   3.24022     17.235933
   3.26055     17.076826
   3.28088     16.952079
   3.30122     16.882764
   3.32155     16.897141
   3.34188     17.011032
   3.36222     17.205883
   3.38255     16.993807
   3.40288     16.745784
   3.42321     16.505148
   3.44355     16.315843
   3.44355     16.315843
   3.46388     16.321899
   3.48421     16.337465
   3.50455     16.353530
   3.52488     16.349456
   3.54521     16.379023
   3.56554     16.457288
   3.58588     16.556024
   3.60621     16.671459
   3.62654     16.799585
   3.64688     16.936459
   3.66721     17.078023
   3.68754     17.219704
   3.70787     17.355640
   3.72821     17.477681
   3.74854     17.574833
   3.76887     17.525003
   3.78921     17.488769
   3.80954     17.530282
   3.82987     17.590280
 
# Band-Index   58
   3.82987     17.590280
   3.80954     17.530282
   3.78921     17.488769
   3.76887     17.525003
   3.74854     17.574833
   3.72821     17.477681
   3.70787     17.355640
   3.68754     17.219704
   3.66721     17.078023
   3.64688     16.936459
   3.62654     16.799585
   3.60621     16.671459
   3.58588     16.556024
   3.56554     16.457288
   3.54521     16.379023
   3.52488     16.349456
   3.50455     16.353530
   3.48421     16.337465
   3.46388     16.321899
   3.44355     16.315843
   3.44355     16.315843
   3.42321     16.505148
   3.40288     16.745784
   3.38255     16.993807
   3.36222     17.205883
   3.34188     17.011032
   3.32155     16.897141
   3.30122     16.882764
   3.28088     16.952079
   3.26055     17.076826
   3.24022     17.235933
   3.21988     17.416562
   3.19955     17.610506
   3.17922     17.811685
   3.15889     18.014462
   3.13855     18.212316
   3.11822     18.396248
   3.09789     18.552689
   3.07755     18.661922
   3.05722     18.701890
   3.05722     18.701890
   3.00742     18.651808
   2.95761     18.519596
   2.90781     18.341158
   2.85800     18.147902
   2.80820     17.964222
   2.75839     17.450984
   2.70858     16.949539
   2.65878     17.079112
   2.60897     17.673294
   2.55917     17.757086
   2.50936     17.560570
   2.45956     17.320381
   2.40975     16.914371
   2.35995     16.403998
   2.31014     16.276996
   2.26034     16.907729
   2.21053     17.605995
   2.16073     18.283476
   2.11092     18.623748
   2.11092     18.623748
   2.05809     18.212019
   2.00527     17.458095
   1.95244     16.693182
   1.89962     16.015697
   1.84679     16.469257
   1.79396     16.477181
   1.74114     17.125861
   1.68831     17.539887
   1.63548     17.455234
   1.58266     16.956083
   1.52983     16.955239
   1.47700     16.563142
   1.42418     16.450250
   1.37135     17.015794
   1.31852     17.006722
   1.26570     17.008017
   1.21287     17.226609
   1.16004     16.982699
   1.10722     17.014526
   1.10722     17.014526
   1.08961     17.067668
   1.07200     17.128064
   1.05439     17.061554
   1.03678     16.859408
   1.01917     16.978068
   1.00157     17.097946
   0.98396     17.218945
   0.96635     17.307171
   0.94874     17.309224
   0.93113     17.310073
   0.91352     17.313485
   0.89591     17.325040
   0.87830     17.351022
   0.86069     17.394945
   0.84309     17.452035
   0.82548     17.509197
   0.80787     17.554069
   0.79026     17.581295
   0.77265     17.590280
   0.77265     17.590280
   0.73198     17.478921
   0.69132     17.223974
   0.65065     17.056020
   0.60999     17.049340
   0.56932     17.059529
   0.52866     16.739554
   0.48799     16.510336
   0.44732     16.391432
   0.40666     16.280147
   0.36599     16.205864
   0.32533     16.211294
   0.28466     16.289575
   0.24399     16.351367
   0.20333     16.313535
   0.16266     16.811733
   0.12200     17.337232
   0.08133     17.874369
   0.04067     18.378468
   0.00000     18.623749
 
# Band-Index   59
   0.00000     18.623752
   0.04067     18.378473
   0.08133     17.874370
   0.12200     17.337232
   0.16266     16.811733
   0.20333     16.313535
   0.24399     16.351367
   0.28466     16.289575
   0.32533     16.529043
   0.36599     16.789832
   0.40666     17.039682
   0.44732     16.752181
   0.48799     16.510336
   0.52866     16.754992
   0.56932     17.163831
   0.60999     17.359353
   0.65065     17.655039
   0.69132     17.929630
   0.73198     17.478921
   0.77265     17.590280
   0.77265     17.590280
   0.79026     17.581295
   0.80787     17.554069
   0.82548     17.567926
   0.84309     17.694240
   0.86069     17.478344
   0.87830     17.351022
   0.89591     17.325040
   0.91352     17.313485
   0.93113     17.310073
   0.94874     17.309224
   0.96635     17.307171
   0.98396     17.302162
   1.00157     17.294197
   1.01917     17.284649
   1.03678     17.258457
   1.05439     17.192351
   1.07200     17.273145
   1.08961     17.287470
   1.10722     17.318095
   1.10722     17.318095
   1.16004     17.517899
   1.21287     17.292116
   1.26570     17.508611
   1.31852     17.611923
   1.37135     17.406122
   1.42418     17.632532
   1.47700     17.243094
   1.52983     16.955239
   1.58266     16.956083
   1.63548     17.565327
   1.68831     17.539887
   1.74114     17.456375
   1.79396     17.206504
   1.84679     16.662386
   1.89962     16.461811
   1.95244     17.024201
   2.00527     17.673549
   2.05809     18.302906
   2.11092     18.623749
   2.11092     18.623750
   2.16073     18.283477
   2.21053     17.605995
   2.26034     16.907729
   2.31014     16.276996
   2.35995     16.403998
   2.40975     16.914371
   2.45956     17.320381
   2.50936     17.560570
   2.55917     17.757086
   2.60897     17.673298
   2.65878     17.188856
   2.70858     16.949539
   2.75839     17.450984
   2.80820     17.964222
   2.85800     18.147902
   2.90781     18.341158
   2.95761     18.519596
   3.00742     18.651808
   3.05722     18.701890
   3.05722     18.701890
   3.07755     18.699707
   3.09789     18.693081
   3.11822     18.681784
   3.13855     18.665464
   3.15889     18.643665
   3.17922     18.615884
   3.19955     18.581620
   3.21988     18.540460
   3.24022     18.492116
   3.26055     18.436513
   3.28088     18.317609
   3.30122     18.043214
   3.32155     17.773287
   3.34188     17.508155
   3.36222     17.248159
   3.38255     17.443827
   3.40288     17.677263
   3.42321     17.775140
   3.44355     17.666075
   3.44355     17.666075
   3.46388     17.597099
   3.48421     17.423096
   3.50455     17.220543
   3.52488     17.036012
   3.54521     16.916010
   3.56554     16.886022
   3.58588     16.920409
   3.60621     16.988010
   3.62654     17.073405
   3.64688     17.170049
   3.66721     17.275300
   3.68754     17.388496
   3.70787     17.509656
   3.72821     17.631412
   3.74854     17.630999
   3.76887     17.635661
   3.78921     17.654819
   3.80954     17.636468
   3.82987     17.590280
 
# Band-Index   60
   3.82987     17.590280
   3.80954     17.636468
   3.78921     17.654819
   3.76887     17.635661
   3.74854     17.630999
   3.72821     17.631412
   3.70787     17.509656
   3.68754     17.388496
   3.66721     17.275300
   3.64688     17.170049
   3.62654     17.073405
   3.60621     16.988010
   3.58588     16.920409
   3.56554     16.886022
   3.54521     16.916010
   3.52488     17.036012
   3.50455     17.220543
   3.48421     17.423096
   3.46388     17.597099
   3.44355     17.666075
   3.44355     17.666075
   3.42321     17.775140
   3.40288     17.677263
   3.38255     17.443827
   3.36222     17.248159
   3.34188     17.508155
   3.32155     17.773287
   3.30122     18.043214
   3.28088     18.317609
   3.26055     18.436513
   3.24022     18.492116
   3.21988     18.540460
   3.19955     18.581620
   3.17922     18.615884
   3.15889     18.643665
   3.13855     18.665464
   3.11822     18.681784
   3.09789     18.693081
   3.07755     18.699707
   3.05722     18.701890
   3.05722     18.701890
   3.00742     18.651808
   2.95761     18.519596
   2.90781     18.341158
   2.85800     18.147902
   2.80820     17.964222
   2.75839     17.818307
   2.70858     17.779311
   2.65878     17.992261
   2.60897     17.981984
   2.55917     17.757087
   2.50936     17.560570
   2.45956     17.320381
   2.40975     16.914371
   2.35995     16.403998
   2.31014     16.276996
   2.26034     16.907729
   2.21053     17.605996
   2.16073     18.283483
   2.11092     18.623757
   2.11092     18.623751
   2.05809     18.302908
   2.00527     17.673549
   1.95244     17.024201
   1.89962     16.461811
   1.84679     16.662386
   1.79396     17.206504
   1.74114     17.456375
   1.68831     17.682795
   1.63548     17.606896
   1.58266     17.569057
   1.52983     17.453546
   1.47700     17.565310
   1.42418     17.722861
   1.37135     17.845104
   1.31852     17.620674
   1.26570     17.550077
   1.21287     17.765301
   1.16004     17.517899
   1.10722     17.318095
   1.10722     17.318095
   1.08961     17.287470
   1.07200     17.273145
   1.05439     17.270721
   1.03678     17.275812
   1.01917     17.284649
   1.00157     17.294197
   0.98396     17.302162
   0.96635     17.340960
   0.94874     17.463846
   0.93113     17.587444
   0.91352     17.664825
   0.89591     17.699627
   0.87830     17.724086
   0.86069     17.736527
   0.84309     17.717811
   0.82548     17.719648
   0.80787     17.688908
   0.79026     17.644393
   0.77265     17.590280
   0.77265     17.590280
   0.73198     17.830433
   0.69132     17.946785
   0.65065     18.321976
   0.60999     17.839106
   0.56932     17.292609
   0.52866     17.333733
   0.48799     17.427140
   0.44732     17.279390
   0.40666     17.162221
   0.36599     16.929037
   0.32533     16.536853
   0.28466     16.502836
   0.24399     16.814050
   0.20333     17.002109
   0.16266     17.370045
   0.12200     17.807720
   0.08133     18.167574
   0.04067     18.469890
   0.00000     18.623763
 
# Band-Index   61
   0.00000     19.113882
   0.04067     18.761475
   0.08133     18.280748
   0.12200     17.807720
   0.16266     17.370045
   0.20333     17.002109
   0.24399     16.847206
   0.28466     16.799579
   0.32533     16.771937
   0.36599     17.019042
   0.40666     17.459056
   0.44732     17.358859
   0.48799     17.510589
   0.52866     17.735193
   0.56932     17.955122
   0.60999     18.171903
   0.65065     18.323575
   0.69132     18.088116
   0.73198     18.233230
   0.77265     18.507180
   0.77265     18.507175
   0.79026     18.380091
   0.80787     18.179670
   0.82548     17.953515
   0.84309     17.735419
   0.86069     17.859947
   0.87830     17.956972
   0.89591     17.835883
   0.91352     17.711551
   0.93113     17.621360
   0.94874     17.570820
   0.96635     17.514635
   0.98396     17.454122
   1.00157     17.390505
   1.01917     17.324909
   1.03678     17.275812
   1.05439     17.270721
   1.07200     17.300601
   1.08961     17.537755
   1.10722     17.762582
   1.10722     17.762582
   1.16004     17.601164
   1.21287     17.765301
   1.26570     17.899396
   1.31852     17.738883
   1.37135     17.845105
   1.42418     17.722862
   1.47700     17.565310
   1.52983     17.453546
   1.58266     17.569057
   1.63548     17.606896
   1.68831     17.778803
   1.74114     17.608365
   1.79396     17.403390
   1.84679     16.998221
   1.89962     17.230896
   1.95244     17.646325
   2.00527     18.129032
   2.05809     18.656561
   2.11092     19.114031
   2.11092     19.113849
   2.16073     18.823022
   2.21053     18.528401
   2.26034     18.253552
   2.31014     18.040694
   2.35995     17.908715
   2.40975     17.896161
   2.45956     18.074125
   2.50936     18.227132
   2.55917     18.345047
   2.60897     17.981984
   2.65878     17.992261
   2.70858     17.779311
   2.75839     17.818307
   2.80820     18.074985
   2.85800     18.735734
   2.90781     19.419301
   2.95761     20.119632
   3.00742     20.362166
   3.05722     20.344520
   3.05722     20.344520
   3.07755     20.340247
   3.09789     20.326906
   3.11822     20.303033
   3.13855     20.266280
   3.15889     20.043626
   3.17922     19.747947
   3.19955     19.454978
   3.21988     19.165169
   3.24022     18.878834
   3.26055     18.596221
   3.28088     18.373784
   3.30122     18.304278
   3.32155     18.228495
   3.34188     18.147031
   3.36222     18.060496
   3.38255     17.969415
   3.40288     17.874204
   3.42321     17.783011
   3.44355     17.672602
   3.44355     17.672602
   3.46388     17.684653
   3.48421     17.738168
   3.50455     17.820834
   3.52488     17.924817
   3.54521     18.040670
   3.56554     18.155127
   3.58588     18.247612
   3.60621     18.300997
   3.62654     18.322349
   3.64688     18.326886
   3.66721     18.323614
   3.68754     18.196267
   3.70787     18.013130
   3.72821     17.851037
   3.74854     17.845783
   3.76887     18.005671
   3.78921     18.195088
   3.80954     18.381902
   3.82987     18.507175
 
# Band-Index   62
   3.82987     18.507188
   3.80954     18.381986
   3.78921     18.195088
   3.76887     18.005671
   3.74854     17.845783
   3.72821     17.851037
   3.70787     18.013130
   3.68754     18.196267
   3.66721     18.323614
   3.64688     18.326893
   3.62654     18.322352
   3.60621     18.300999
   3.58588     18.247612
   3.56554     18.155127
   3.54521     18.040670
   3.52488     17.924817
   3.50455     17.820834
   3.48421     17.738168
   3.46388     17.684653
   3.44355     17.672602
   3.44355     17.672602
   3.42321     17.783011
   3.40288     17.874204
   3.38255     17.969415
   3.36222     18.060496
   3.34188     18.147031
   3.32155     18.228495
   3.30122     18.304278
   3.28088     18.373784
   3.26055     18.596221
   3.24022     18.878834
   3.21988     19.165169
   3.19955     19.454979
   3.17922     19.747948
   3.15889     20.043650
   3.13855     20.266332
   3.11822     20.303442
   3.09789     20.327150
   3.07755     20.340248
   3.05722     20.344520
   3.05722     20.344521
   3.00742     20.362207
   2.95761     20.122936
   2.90781     19.419302
   2.85800     18.735734
   2.80820     18.074985
   2.75839     17.818308
   2.70858     17.779312
   2.65878     17.993234
   2.60897     17.982121
   2.55917     18.345688
   2.50936     18.227135
   2.45956     18.074291
   2.40975     17.898628
   2.35995     17.909800
   2.31014     18.040840
   2.26034     18.256728
   2.21053     18.532399
   2.16073     18.824065
   2.11092     19.116557
   2.11092     19.116104
   2.05809     18.697819
   2.00527     18.309197
   1.95244     17.954859
   1.89962     17.671412
   1.84679     17.510624
   1.79396     17.509130
   1.74114     18.067787
   1.68831     18.250340
   1.63548     17.709410
   1.58266     17.716856
   1.52983     17.716783
   1.47700     17.701235
   1.42418     17.851851
   1.37135     17.871473
   1.31852     17.911608
   1.26570     17.899396
   1.21287     17.830044
   1.16004     18.126319
   1.10722     17.933091
   1.10722     17.933091
   1.08961     18.048466
   1.07200     18.166031
   1.05439     18.127825
   1.03678     18.070952
   1.01917     18.018311
   1.00157     17.971943
   0.98396     17.934007
   0.96635     17.906461
   0.94874     17.890750
   0.93113     17.887541
   0.91352     17.897023
   0.89591     17.919616
   0.87830     17.956972
   0.86069     18.012767
   0.84309     18.092121
   0.82548     18.197869
   0.80787     18.323949
   0.79026     18.446977
   0.77265     18.507225
   0.77265     18.507194
   0.73198     18.505787
   0.69132     18.444708
   0.65065     18.348697
   0.60999     18.176389
   0.56932     18.037375
   0.52866     17.923793
   0.48799     17.842934
   0.44732     17.788813
   0.40666     17.514713
   0.36599     17.658412
   0.32533     17.469406
   0.28466     17.139744
   0.24399     16.847206
   0.20333     17.142034
   0.16266     17.482845
   0.12200     17.828780
   0.08133     18.280755
   0.04067     18.763249
   0.00000     19.116300
 
# Band-Index   63
   0.00000     19.118426
   0.04067     18.860880
   0.08133     18.443657
   0.12200     18.043156
   0.16266     17.662361
   0.20333     17.309949
   0.24399     17.005739
   0.28466     17.139744
   0.32533     17.469406
   0.36599     17.658412
   0.40666     17.741153
   0.44732     17.788813
   0.48799     17.842934
   0.52866     17.923793
   0.56932     18.037375
   0.60999     18.176390
   0.65065     18.351667
   0.69132     18.445022
   0.73198     18.508841
   0.77265     18.507226
   0.77265     18.507260
   0.79026     18.447076
   0.80787     18.323951
   0.82548     18.197869
   0.84309     18.092121
   0.86069     18.012767
   0.87830     17.960035
   0.89591     17.919616
   0.91352     17.897023
   0.93113     17.887541
   0.94874     17.890750
   0.96635     17.906461
   0.98396     17.934007
   1.00157     17.971943
   1.01917     18.018311
   1.03678     18.070952
   1.05439     18.127825
   1.07200     18.187209
   1.08961     18.247847
   1.10722     18.309051
   1.10722     18.309051
   1.16004     18.501130
   1.21287     18.751464
   1.26570     18.227818
   1.31852     17.911609
   1.37135     17.961038
   1.42418     18.322506
   1.47700     18.471125
   1.52983     18.382752
   1.58266     18.398146
   1.63548     18.432797
   1.68831     18.390575
   1.74114     18.090595
   1.79396     17.724415
   1.84679     17.748877
   1.89962     17.914949
   1.95244     18.157785
   2.00527     18.456089
   2.05809     18.796427
   2.11092     19.119712
   2.11092     19.118727
   2.16073     18.834497
   2.21053     18.582773
   2.26034     18.269697
   2.31014     18.045787
   2.35995     17.910854
   2.40975     17.906837
   2.45956     18.085132
   2.50936     18.227152
   2.55917     18.382034
   2.60897     18.310131
   2.65878     18.249416
   2.70858     18.558542
   2.75839     18.905283
   2.80820     19.285253
   2.85800     19.694478
   2.90781     20.129068
   2.95761     20.386592
   3.00742     20.362660
   3.05722     20.344521
   3.05722     20.344521
   3.07755     20.385204
   3.09789     20.496569
   3.11822     20.643839
   3.13855     20.341283
   3.15889     20.214605
   3.17922     20.146860
   3.19955     20.063095
   3.21988     19.966386
   3.24022     19.858436
   3.26055     19.716252
   3.28088     19.518319
   3.30122     19.310877
   3.32155     19.103232
   3.34188     18.893605
   3.36222     18.684841
   3.38255     18.482720
   3.40288     18.310868
   3.42321     18.278458
   3.44355     18.472821
   3.44355     18.475048
   3.46388     18.472292
   3.48421     18.473268
   3.50455     18.475466
   3.52488     18.480382
   3.54521     18.491295
   3.56554     18.516253
   3.58588     18.571594
   3.60621     18.670996
   3.62654     18.758740
   3.64688     18.573993
   3.66721     18.385027
   3.68754     18.317685
   3.70787     18.313710
   3.72821     18.317750
   3.74854     18.337965
   3.76887     18.381707
   3.78921     18.446805
   3.80954     18.509910
   3.82987     18.507251
 
# Band-Index   64
   3.82987     18.507312
   3.80954     18.510191
   3.78921     18.446818
   3.76887     18.381707
   3.74854     18.337966
   3.72821     18.317750
   3.70787     18.313710
   3.68754     18.317685
   3.66721     18.385028
   3.64688     18.574000
   3.62654     18.771567
   3.60621     18.671087
   3.58588     18.571625
   3.56554     18.516254
   3.54521     18.491296
   3.52488     18.480383
   3.50455     18.475477
   3.48421     18.473432
   3.46388     18.473336
   3.44355     18.477793
   3.44355     18.477316
   3.42321     18.278551
   3.40288     18.310883
   3.38255     18.482774
   3.36222     18.684902
   3.34188     18.894406
   3.32155     19.107589
   3.30122     19.319059
   3.28088     19.569558
   3.26055     19.738000
   3.24022     19.872926
   3.21988     20.010336
   3.19955     20.084250
   3.17922     20.148342
   3.15889     20.215270
   3.13855     20.341494
   3.11822     20.655315
   3.09789     20.498128
   3.07755     20.385206
   3.05722     20.344523
   3.05722     20.344522
   3.00742     20.678191
   2.95761     20.398608
   2.90781     20.132360
   2.85800     19.694481
   2.80820     19.285253
   2.75839     18.905283
   2.70858     18.558542
   2.65878     18.249416
   2.60897     18.310143
   2.55917     18.382038
   2.50936     18.575747
   2.45956     18.100547
   2.40975     18.023400
   2.35995     18.073773
   2.31014     18.199643
   2.26034     18.378002
   2.21053     18.588729
   2.16073     18.848841
   2.11092     19.137121
   2.11092     19.133704
   2.05809     18.805134
   2.00527     18.456739
   1.95244     18.157814
   1.89962     17.914950
   1.84679     17.748877
   1.79396     17.724419
   1.74114     18.091029
   1.68831     18.411288
   1.63548     18.434582
   1.58266     18.398154
   1.52983     18.382755
   1.47700     18.578227
   1.42418     18.394926
   1.37135     18.749793
   1.31852     19.148583
   1.26570     19.090264
   1.21287     18.753000
   1.16004     18.501131
   1.10722     18.309051
   1.10722     18.309051
   1.08961     18.247847
   1.07200     18.187209
   1.05439     18.285678
   1.03678     18.407261
   1.01917     18.530576
   1.00157     18.655369
   0.98396     18.781324
   0.96635     18.908356
   0.94874     18.864968
   0.93113     18.653486
   0.91352     18.445023
   0.89591     18.241404
   0.87830     18.045083
   0.86069     18.083353
   0.84309     18.204695
   0.82548     18.321691
   0.80787     18.428546
   0.79026     18.507682
   0.77265     18.507554
   0.77265     18.507729
   0.73198     18.733895
   0.69132     18.598111
   0.65065     18.388241
   0.60999     18.601055
   0.56932     18.791420
   0.52866     18.781488
   0.48799     18.468518
   0.44732     18.009040
   0.40666     17.741153
   0.36599     18.184512
   0.32533     18.713347
   0.28466     18.583441
   0.24399     18.558301
   0.20333     18.590188
   0.16266     18.646498
   0.12200     18.716733
   0.08133     18.802280
   0.04067     18.922031
   0.00000     19.136138
